    Step 	 temperature 	 pressure 	 Potential Energy 	 Kinetic Energy 	 Sum Energy

       0	 1.64316	-0.291625	         -1408.1	         2465.71	         1057.62
       1	 1.64346	-0.291662	        -1408.55	         2466.16	         1057.61
       2	 1.64436	-0.291765	         -1409.9	         2467.52	         1057.61
       3	 1.64586	-0.291922	        -1412.15	         2469.77	         1057.61
       4	 1.64796	-0.292115	         -1415.3	         2472.91	         1057.61
       5	 1.65066	-0.292315	        -1419.34	         2476.96	         1057.61
       6	 1.65395	-0.292481	        -1424.28	         2481.89	         1057.61
       7	 1.65781	-0.292554	        -1430.08	         2487.69	         1057.61
       8	 1.66225	-0.292458	        -1436.73	         2494.34	         1057.61
       9	 1.66721	-0.292087	        -1444.19	         2501.79	          1057.6
      10	 1.67267	-0.291298	        -1452.38	         2509.97	         1057.59
      11	 1.67854	-0.289897	         -1461.2	         2518.77	         1057.58
      12	 1.68471	-0.287616	        -1470.48	         2528.04	         1057.56
      13	 1.69103	-0.284096	        -1479.99	         2537.52	         1057.53
      14	 1.69726	-0.278843	        -1489.37	         2546.86	         1057.49
      15	 1.70305	-0.271204	        -1498.12	         2555.54	         1057.43
      16	 1.70795	-0.26033	        -1505.54	         2562.89	         1057.35
      17	 1.71137	-0.245202	        -1510.77	         2568.03	         1057.26
      18	  1.7127	-0.224755	        -1512.84	         2570.01	         1057.17
      19	 1.71142	-0.198194	        -1510.98	          2568.1	         1057.12
      20	 1.70745	-0.165475	        -1505.02	         2562.14	         1057.12
      21	 1.70126	-0.127639	        -1495.69	         2552.86	         1057.17
      22	 1.69381	-0.0866096	        -1484.45	         2541.68	         1057.24
      23	 1.68619	-0.0445591	        -1472.96	         2530.25	          1057.3
      24	 1.67941	-0.00351099	        -1462.73	         2520.08	         1057.35
      25	 1.67433	0.0347742	        -1455.08	         2512.47	         1057.38
      26	 1.67152	0.0690854	        -1450.87	         2508.25	         1057.38
      27	 1.67106	0.099104	        -1450.23	         2507.56	         1057.33
      28	 1.67256	0.125383	        -1452.55	         2509.81	         1057.26
      29	 1.67537	   0.149	        -1456.82	         2514.02	          1057.2
      30	 1.67877	0.171111	        -1461.97	         2519.13	         1057.16
      31	 1.68228	0.192563	        -1467.24	         2524.39	         1057.15
      32	 1.68571	 0.21365	        -1472.36	         2529.53	         1057.17
      33	 1.68917	0.234139	        -1477.51	         2534.72	         1057.21
      34	 1.69297	0.253471	        -1483.17	         2540.42	         1057.26
      35	 1.69745	0.271046	        -1489.85	         2547.14	         1057.29
      36	 1.70283	0.286464	        -1497.91	         2555.21	         1057.29
      37	 1.70913	 0.29969	         -1507.4	         2564.67	         1057.27
      38	 1.71614	0.311132	        -1517.96	         2575.18	         1057.23
      39	 1.72342	0.321594	        -1528.93	          2586.1	         1057.16
      40	 1.73043	0.332046	         -1539.5	         2596.61	         1057.11
      41	 1.73677	0.343243	        -1549.04	         2606.13	         1057.08
      42	 1.74232	0.355439	        -1557.37	         2614.45	         1057.08
      43	 1.74712	0.368541	        -1564.58	         2621.65	         1057.07
      44	 1.75121	0.382486	        -1570.74	         2627.79	         1057.05
      45	 1.75461	0.397255	        -1575.83	         2632.88	         1057.04
      46	 1.75738	0.412664	        -1579.98	         2637.03	         1057.05
      47	 1.75975	0.428261	        -1583.52	          2640.6	         1057.08
      48	 1.76221	0.443182	        -1587.13	         2644.28	         1057.15
      49	 1.76555	 0.45598	        -1592.06	         2649.29	         1057.23
      50	  1.7706	0.465119	        -1599.62	         2656.88	         1057.26
      51	 1.77765	0.470103	        -1610.25	         2667.44	         1057.19
      52	 1.78616	0.471892	        -1623.11	          2680.2	          1057.1
      53	 1.79518	0.472198	        -1636.72	         2693.73	         1057.01
      54	  1.8038	0.472645	        -1649.73	         2706.68	         1056.95
      55	 1.81139	0.474429	        -1661.13	         2718.05	         1056.92
      56	 1.81761	0.478174	        -1670.45	         2727.39	         1056.94
      57	  1.8227	0.483553	        -1678.01	         2735.02	         1057.01
      58	 1.82726	0.489461	        -1684.81	         2741.86	         1057.05
      59	 1.83169	0.495193	        -1691.48	         2748.51	         1057.04
      60	 1.83591	0.500918	        -1697.81	         2754.83	         1057.03
      61	 1.83982	0.506781	        -1703.64	          2760.7	         1057.06
      62	 1.84367	0.512312	        -1709.37	         2766.48	         1057.11
      63	 1.84785	0.516806	        -1715.62	         2772.75	         1057.13
      64	 1.85254	0.519964	        -1722.67	         2779.77	          1057.1
      65	  1.8575	0.522174	        -1730.17	         2787.21	         1057.04
      66	 1.86224	0.524329	        -1737.35	         2794.33	         1056.98
      67	 1.86618	0.527422	        -1743.32	         2800.24	         1056.92
      68	 1.86883	0.532291	        -1747.34	         2804.22	         1056.88
      69	 1.86986	0.539455	        -1748.89	         2805.76	         1056.86
      70	 1.86932	0.548764	        -1748.04	         2804.95	         1056.92
      71	   1.868	0.558823	         -1745.9	         2802.97	         1057.07
      72	 1.86761	0.566601	        -1745.08	         2802.38	         1057.29
      73	 1.87026	0.568296	        -1748.95	         2806.36	         1057.41
      74	 1.87692	0.562142	        -1759.06	         2816.35	         1057.29
      75	 1.88655	0.550135	        -1773.69	         2830.79	          1057.1
      76	 1.89712	0.535926	        -1789.68	         2846.64	         1056.97
      77	 1.90704	0.522381	        -1804.62	         2861.52	          1056.9
      78	 1.91533	0.511286	        -1817.11	         2873.97	         1056.86
      79	 1.92142	0.503765	        -1826.27	         2883.11	         1056.84
      80	  1.9251	  0.5003	        -1831.74	         2888.61	         1056.87
      81	 1.92673	0.500295	        -1834.08	         2891.06	         1056.98
      82	  1.9275	0.501731	        -1835.07	         2892.22	         1057.15
      83	 1.92897	0.501805	        -1837.18	         2894.43	         1057.25
      84	 1.93206	 0.49889	        -1841.87	         2899.06	         1057.19
      85	 1.93632	0.493804	        -1848.39	         2905.45	         1057.06
      86	 1.94055	0.488729	        -1854.83	         2911.79	         1056.96
      87	 1.94367	0.485545	        -1859.57	         2916.47	          1056.9
      88	 1.94507	 0.48532	         -1861.7	         2918.57	         1056.87
      89	  1.9445	0.488492	        -1860.88	         2917.72	         1056.84
      90	  1.9419	0.495149	           -1857	         2913.82	         1056.82
      91	 1.93734	0.505104	        -1850.16	         2906.98	         1056.82
      92	 1.93122	0.517581	        -1840.92	          2897.8	         1056.88
      93	 1.92456	0.530739	         -1830.8	          2887.8	         1057.01
      94	 1.91885	0.541822	         -1822.1	         2879.24	         1057.14
      95	 1.91552	0.548249	        -1817.05	         2874.25	         1057.19
      96	 1.91517	0.548906	        -1816.58	         2873.72	         1057.15
      97	 1.91734	0.544614	        -1819.94	         2876.98	         1057.03
      98	 1.92087	0.537461	        -1825.33	         2882.27	         1056.94
      99	 1.92471	0.529355	        -1831.11	         2888.03	         1056.92
     100	 1.92846	0.521069	        -1836.71	         2893.67	         1056.96
     101	 1.93224	0.512484	        -1842.33	         2899.32	         1056.99
     102	 1.93619	0.503404	        -1848.25	         2905.25	         1056.99
     103	 1.94024	 0.49406	        -1854.34	         2911.33	         1056.98
     104	  1.9442	 0.48489	        -1860.27	         2917.26	         1056.99
     105	 1.94794	0.476163	        -1865.88	         2922.88	            1057
     106	 1.95138	0.468085	        -1871.04	         2928.03	         1056.99
     107	 1.95435	0.461001	        -1875.51	          2932.5	         1056.99
     108	 1.95674	0.455213	        -1879.07	         2936.08	         1057.01
     109	 1.95858	0.450673	         -1881.8	         2938.84	         1057.04
     110	 1.96013	0.446982	        -1884.09	         2941.17	         1057.08
     111	 1.96162	 0.44375	        -1886.32	          2943.4	         1057.08
     112	 1.96308	0.440961	        -1888.51	         2945.58	         1057.07
     113	 1.96439	0.438852	        -1890.48	         2947.55	         1057.07
     114	  1.9655	0.437528	        -1892.14	         2949.22	         1057.07
     115	 1.96636	 0.43707	        -1893.46	         2950.51	         1057.05
     116	 1.96671	0.437933	        -1894.04	         2951.03	         1056.99
     117	 1.96618	0.440784	        -1893.26	         2950.23	         1056.97
     118	 1.96477	0.445635	         -1891.1	         2948.13	         1057.03
     119	 1.96303	0.451469	        -1888.45	         2945.51	         1057.06
     120	 1.96132	0.457525	        -1885.94	         2942.95	         1057.01
     121	 1.95925	0.464464	        -1882.91	         2939.84	         1056.93
     122	 1.95627	0.473211	        -1878.43	         2935.37	         1056.93
     123	  1.9524	0.483568	        -1872.57	         2929.57	            1057
     124	  1.9483	0.494283	        -1866.35	         2923.42	         1057.08
     125	 1.94488	  0.5037	        -1861.13	         2918.28	         1057.15
     126	 1.94286	0.510445	        -1858.09	         2915.26	         1057.17
     127	 1.94252	0.514031	        -1857.61	         2914.75	         1057.14
     128	 1.94363	0.514869	        -1859.31	         2916.41	          1057.1
     129	 1.94575	0.513747	        -1862.52	         2919.59	         1057.06
     130	 1.94839	0.511525	        -1866.54	         2923.56	         1057.02
     131	 1.95102	0.509209	        -1870.52	         2927.49	         1056.97
     132	 1.95299	0.507949	        -1873.53	         2930.45	         1056.93
     133	 1.95382	0.508649	        -1874.78	          2931.7	         1056.91
     134	 1.95331	0.511649	        -1874.01	         2930.93	         1056.92
     135	 1.95149	0.516867	        -1871.28	          2928.2	         1056.93
     136	 1.94848	0.524043	        -1866.74	         2923.68	         1056.94
     137	 1.94452	0.532662	        -1860.77	         2917.75	         1056.98
     138	 1.94012	0.541736	         -1854.1	         2911.15	         1057.05
     139	 1.93609	0.549745	        -1847.97	         2905.11	         1057.14
     140	 1.93341	0.554882	        -1843.87	         2901.08	         1057.21
     141	 1.93277	0.555812	        -1842.91	         2900.12	         1057.21
     142	 1.93418	0.552525	        -1845.09	         2902.24	         1057.15
     143	 1.93704	0.546101	        -1849.45	         2906.53	         1057.08
     144	 1.94063	0.537875	        -1854.88	         2911.91	         1057.03
     145	 1.94432	 0.52901	        -1860.46	         2917.45	            1057
     146	 1.94769	0.520378	        -1865.52	          2922.5	         1056.98
     147	 1.95047	0.512515	        -1869.71	         2926.68	         1056.97
     148	  1.9526	0.505664	         -1872.9	         2929.87	         1056.97
     149	 1.95411	0.499844	        -1875.15	         2932.13	         1056.98
     150	 1.95509	0.494919	        -1876.62	          2933.6	         1056.98
     151	 1.95564	 0.49073	        -1877.45	         2934.42	         1056.97
     152	 1.95573	0.487295	        -1877.61	         2934.56	         1056.95
     153	 1.95531	0.484702	        -1876.97	         2933.93	         1056.96
     154	 1.95465	 0.48246	         -1875.9	         2932.94	         1057.03
     155	 1.95443	 0.47931	        -1875.52	         2932.61	         1057.09
     156	 1.95515	0.474322	        -1876.64	          2933.7	         1057.05
     157	 1.95655	0.468003	        -1878.83	         2935.79	         1056.96
     158	 1.95788	0.461738	        -1880.86	         2937.78	         1056.92
     159	 1.95881	0.456186	        -1882.22	         2939.19	         1056.97
     160	 1.95975	0.450676	        -1883.55	          2940.6	         1057.05
     161	 1.96128	0.444233	        -1885.83	         2942.89	         1057.06
     162	 1.96347	0.436806	        -1889.15	         2946.17	         1057.02
     163	 1.96594	0.429186	        -1892.88	         2949.88	         1056.99
     164	 1.96827	 0.42216	         -1896.4	         2953.38	         1056.97
     165	 1.97002	0.416511	        -1899.09	         2955.99	         1056.91
     166	 1.97042	0.413594	        -1899.77	          2956.6	         1056.83
     167	 1.96868	0.414843	        -1897.17	         2953.98	         1056.81
     168	 1.96455	0.420614	        -1890.93	          2947.8	         1056.87
     169	 1.95855	0.429918	        -1881.83	         2938.79	         1056.96
     170	 1.95161	 0.44098	        -1871.32	         2928.38	         1057.06
     171	 1.94487	0.451691	         -1861.1	         2918.27	         1057.17
     172	 1.93956	0.459799	        -1853.04	         2910.31	         1057.27
     173	 1.93664	0.463481	        -1848.65	         2905.93	         1057.28
     174	 1.93632	0.462323	        -1848.23	         2905.44	         1057.21
     175	 1.93798	0.457392	         -1850.8	         2907.94	         1057.14
     176	 1.94087	0.450069	        -1855.16	         2912.27	         1057.11
     177	 1.94454	0.441147	        -1860.66	         2917.78	         1057.12
     178	 1.94885	0.430956	        -1867.12	         2924.24	         1057.12
     179	 1.95359	0.419909	        -1874.26	         2931.35	         1057.09
     180	 1.95836	0.408826	        -1881.46	         2938.51	         1057.05
     181	 1.96262	0.398737	        -1887.88	          2944.9	         1057.02
     182	 1.96598	0.390417	        -1892.92	         2949.94	         1057.02
     183	 1.96833	0.384095	        -1896.42	         2953.47	         1057.05
     184	 1.96984	 0.37952	        -1898.64	         2955.73	         1057.08
     185	 1.97082	 0.37616	        -1900.08	          2957.2	         1057.12
     186	 1.97162	0.373427	        -1901.26	          2958.4	         1057.14
     187	 1.97243	0.370983	        -1902.48	         2959.62	         1057.13
     188	 1.97315	0.369009	        -1903.59	         2960.69	          1057.1
     189	 1.97347	0.368051	         -1904.1	         2961.17	         1057.08
     190	 1.97317	0.368511	        -1903.64	         2960.72	         1057.08
     191	  1.9722	0.370423	        -1902.19	         2959.27	         1057.08
     192	 1.97061	0.373689	        -1899.81	         2956.89	         1057.08
     193	 1.96839	0.378305	        -1896.49	         2953.56	         1057.07
     194	 1.96556	0.384192	        -1892.22	         2949.31	         1057.09
     195	 1.96239	0.390844	        -1887.41	         2944.55	         1057.13
     196	 1.95934	 0.39735	        -1882.81	         2939.98	         1057.17
     197	 1.95679	0.402998	        -1878.99	         2936.15	         1057.15
     198	 1.95468	0.407801	        -1875.88	         2932.99	         1057.11
     199	 1.95274	0.412241	        -1872.99	         2930.07	         1057.08
     200	 1.95081	0.416515	        -1870.07	         2927.18	         1057.11
     201	  1.9492	0.420058	        -1867.58	         2924.76	         1057.18
     202	 1.94858	0.421655	        -1866.58	         2923.84	         1057.25
     203	 1.94963	0.420113	        -1868.14	         2925.41	         1057.27
     204	 1.95251	0.415146	        -1872.52	         2929.74	         1057.22
     205	 1.95671	0.407749	        -1878.92	         2936.04	         1057.11
     206	 1.96119	0.399791	        -1885.75	         2942.76	            1057
     207	 1.96488	0.393253	        -1891.35	         2948.28	         1056.93
     208	 1.96698	0.389551	        -1894.54	         2951.45	          1056.9
     209	 1.96726	0.389193	        -1894.93	         2951.85	         1056.93
     210	 1.96598	0.391701	        -1892.94	         2949.94	            1057
     211	 1.96399	0.395653	        -1889.83	         2946.96	         1057.12
     212	 1.96249	0.398946	        -1887.46	          2944.7	         1057.24
     213	 1.96259	0.399613	        -1887.57	         2944.86	         1057.29
     214	  1.9647	0.396974	         -1890.8	         2948.03	         1057.22
     215	 1.96821	0.392167	        -1896.19	         2953.29	         1057.09
     216	 1.97187	0.387466	        -1901.79	         2958.77	         1056.98
     217	  1.9745	0.384996	        -1905.81	         2962.73	         1056.92
     218	 1.97553	0.385848	        -1907.33	         2964.26	         1056.93
     219	 1.97502	0.389921	        -1906.51	         2963.49	         1056.98
     220	 1.97354	0.396246	        -1904.23	         2961.27	         1057.04
     221	 1.97174	0.403664	        -1901.53	         2958.58	         1057.05
     222	 1.96982	0.411788	        -1898.73	          2955.7	         1056.97
     223	 1.96717	0.421621	        -1894.88	         2951.72	         1056.84
     224	 1.96282	0.434819	        -1888.43	          2945.2	         1056.77
     225	 1.95627	0.452133	        -1878.58	         2935.38	          1056.8
     226	 1.94793	0.472693	        -1865.97	         2922.87	          1056.9
     227	 1.93894	0.494337	        -1852.35	         2909.38	         1057.03
     228	 1.93075	0.514315	        -1839.96	          2897.1	         1057.14
     229	  1.9246	0.530304	        -1830.69	         2887.87	         1057.18
     230	 1.92099	  0.5413	        -1825.31	         2882.45	         1057.15
     231	 1.91965	0.547676	        -1823.38	         2880.45	         1057.07
     232	 1.91989	0.550613	        -1823.81	         2880.81	         1056.99
     233	 1.92092	 0.55147	        -1825.43	         2882.35	         1056.93
     234	  1.9221	0.551378	        -1827.25	         2884.12	         1056.87
     235	 1.92301	0.551101	        -1828.64	         2885.48	         1056.85
     236	 1.92379	0.550569	         -1829.7	         2886.65	         1056.95
     237	 1.92581	0.547554	        -1832.51	         2889.69	         1057.18
     238	  1.9309	0.538719	        -1840.19	         2897.32	         1057.12
     239	 1.93852	0.525063	        -1851.94	         2908.75	         1056.81
     240	 1.94592	0.511723	        -1863.21	         2919.84	         1056.63
     241	 1.95102	0.502313	        -1870.85	         2927.49	         1056.64
     242	 1.95355	0.497264	        -1874.54	         2931.29	         1056.75
     243	 1.95437	0.495074	        -1875.65	         2932.53	         1056.88
     244	 1.95463	 0.49376	        -1875.94	         2932.91	         1056.97
     245	 1.95522	0.491755	        -1876.76	         2933.79	         1057.04
     246	 1.95673	0.488044	        -1878.98	         2936.06	         1057.07
     247	 1.95941	0.482186	        -1883.02	         2940.09	         1057.07
     248	 1.96307	0.474594	        -1888.55	         2945.57	         1057.02
     249	 1.96701	0.466512	        -1894.53	         2951.49	         1056.96
     250	 1.97046	0.459413	        -1899.75	         2956.67	         1056.92
     251	 1.97286	0.454343	        -1903.35	         2960.26	         1056.92
     252	 1.97396	0.451766	        -1904.98	          2961.9	         1056.93
     253	 1.97374	0.451724	        -1904.62	         2961.57	         1056.95
     254	 1.97242	0.453857	        -1902.59	         2959.59	            1057
     255	 1.97046	0.457311	         -1899.6	         2956.66	         1057.07
     256	 1.96853	0.460898	        -1896.64	         2953.76	         1057.12
     257	 1.96716	0.463605	        -1894.58	         2951.71	         1057.14
     258	 1.96655	 0.46507	        -1893.68	         2950.79	         1057.11
     259	 1.96656	0.465527	        -1893.72	         2950.81	         1057.09
     260	 1.96705	0.465261	        -1894.45	         2951.54	         1057.09
     261	 1.96802	0.464263	        -1895.91	         2953.01	          1057.1
     262	  1.9694	0.462677	        -1898.03	         2955.07	         1057.04
     263	 1.97056	0.461599	        -1899.88	         2956.81	         1056.93
     264	 1.97049	0.462852	        -1899.85	          2956.7	         1056.85
     265	 1.96841	0.467774	        -1896.72	         2953.58	         1056.86
     266	  1.9643	0.476329	        -1890.48	         2947.42	         1056.94
     267	 1.95894	0.487088	        -1882.32	         2939.38	         1057.06
     268	 1.95354	 0.49782	         -1874.1	         2931.29	         1057.18
     269	 1.94931	0.506308	        -1867.68	         2924.94	         1057.26
     270	 1.94705	0.511059	        -1864.28	         2921.55	         1057.27
     271	 1.94697	0.511661	        -1864.19	         2921.42	         1057.23
     272	 1.94873	0.508672	         -1866.9	         2924.07	         1057.16
     273	 1.95167	0.503285	        -1871.39	         2928.47	         1057.08
     274	 1.95487	0.497106	        -1876.29	         2933.27	         1056.98
     275	 1.95738	0.491875	        -1880.13	         2937.04	         1056.92
     276	 1.95853	0.488855	        -1881.85	         2938.76	         1056.91
     277	 1.95818	0.488305	        -1881.27	         2938.24	         1056.96
     278	 1.95678	0.489487	        -1879.11	         2936.15	         1057.04
     279	 1.95502	0.491245	        -1876.41	          2933.5	         1057.09
     280	 1.95331	 0.49285	        -1873.86	         2930.94	         1057.08
     281	 1.95162	0.494415	        -1871.35	         2928.39	         1057.04
     282	 1.94963	0.496497	         -1868.4	         2925.42	         1057.02
     283	 1.94718	0.499398	        -1864.71	         2921.74	         1057.03
     284	 1.94441	0.502852	        -1860.51	         2917.58	         1057.07
     285	 1.94169	0.506156	        -1856.39	         2913.51	         1057.11
     286	 1.93954	  0.5084	        -1853.12	         2910.28	         1057.16
     287	 1.93844	0.508701	        -1851.45	         2908.63	         1057.18
     288	 1.93869	0.506517	        -1851.83	            2909	         1057.18
     289	 1.94019	0.501987	        -1854.13	         2911.25	         1057.13
     290	 1.94244	0.496004	        -1857.57	         2914.64	         1057.06
     291	 1.94481	0.489734	        -1861.15	         2918.18	         1057.03
     292	 1.94689	0.483903	        -1864.27	         2921.31	         1057.05
     293	 1.94872	0.478512	        -1866.96	         2924.05	         1057.09
     294	 1.95053	0.473167	        -1869.64	         2926.76	         1057.11
     295	  1.9525	0.467608	        -1872.61	         2929.72	         1057.11
     296	 1.95457	0.462026	        -1875.74	         2932.82	         1057.08
     297	 1.95641	0.457034	        -1878.55	         2935.59	         1057.04
     298	 1.95764	0.453383	        -1880.42	         2937.43	         1057.01
     299	 1.95798	0.451588	        -1880.93	         2937.93	            1057
     300	 1.95743	0.451669	         -1880.1	         2937.12	         1057.02
     301	 1.95624	0.453211	        -1878.29	         2935.33	         1057.04
     302	 1.95462	0.455803	        -1875.87	         2932.89	         1057.02
     303	 1.95243	0.459609	        -1872.67	         2929.62	         1056.95
     304	 1.94916	0.465511	        -1867.85	         2924.71	         1056.86
     305	 1.94421	0.474481	        -1860.46	         2917.29	         1056.83
     306	 1.93751	0.486593	        -1850.36	         2907.24	         1056.88
     307	 1.92978	0.500469	        -1838.65	         2895.64	            1057
     308	 1.92238	 0.51361	        -1827.43	         2884.54	         1057.11
     309	  1.9166	0.523615	        -1818.73	         2875.86	         1057.13
     310	 1.91298	0.529438	        -1813.35	         2870.44	         1057.09
     311	 1.91165	0.530964	        -1811.32	         2868.45	         1057.13
     312	  1.9131	0.527306	        -1813.43	         2870.63	          1057.2
     313	 1.91763	0.517805	        -1820.35	         2877.42	         1057.07
     314	 1.92389	 0.50496	        -1829.95	          2886.8	         1056.86
     315	 1.92977	0.492666	        -1838.83	         2895.62	         1056.79
     316	 1.93421	0.482797	        -1845.44	         2902.29	         1056.85
     317	 1.93739	0.475083	        -1850.11	         2907.06	         1056.95
     318	 1.93999	0.468394	        -1853.91	         2910.95	         1057.04
     319	 1.94265	0.461659	        -1857.86	         2914.94	         1057.08
     320	 1.94565	0.454425	        -1862.38	         2919.45	         1057.07
     321	  1.9488	0.447093	        -1867.15	         2924.16	         1057.02
     322	 1.95156	0.440612	        -1871.34	         2928.31	         1056.97
     323	 1.95352	0.435781	        -1874.27	         2931.24	         1056.97
     324	 1.95462	0.432689	        -1875.89	          2932.9	         1057.01
     325	  1.9553	0.430621	        -1876.85	         2933.91	         1057.07
     326	 1.95613	0.428533	        -1878.08	         2935.17	         1057.09
     327	 1.95741	 0.42594	        -1880.04	         2937.08	         1057.04
     328	 1.95877	0.423437	        -1882.18	         2939.13	         1056.95
     329	 1.95956	0.422221	        -1883.42	         2940.31	         1056.89
     330	 1.95928	0.423106	        -1883.01	         2939.89	         1056.88
     331	 1.95805	0.425872	         -1881.1	         2938.04	         1056.94
     332	 1.95661	0.429214	        -1878.83	         2935.88	         1057.05
     333	 1.95622	0.430954	        -1878.14	          2935.3	         1057.16
     334	 1.95794	0.429184	        -1880.75	         2937.88	         1057.13
     335	 1.96142	0.424537	        -1886.14	          2943.1	         1056.95
     336	 1.96503	0.419999	         -1891.7	         2948.52	         1056.82
     337	 1.96732	0.418148	        -1895.16	         2951.95	         1056.79
     338	 1.96774	0.419918	        -1895.77	         2952.58	         1056.81
     339	 1.96637	0.425149	        -1893.69	         2950.52	         1056.84
     340	 1.96347	0.433341	        -1889.33	         2946.17	         1056.84
     341	 1.95924	0.444079	        -1882.99	         2939.83	         1056.84
     342	 1.95408	0.456653	        -1875.15	         2932.09	         1056.94
     343	 1.94932	0.468714	        -1867.79	         2924.95	         1057.16
     344	 1.94699	0.476473	         -1864.2	         2921.45	         1057.26
     345	 1.94793	0.478333	        -1865.74	         2922.87	         1057.13
     346	  1.9511	0.476249	        -1870.62	         2927.62	         1057.01
     347	 1.95504	0.472766	        -1876.57	         2933.52	         1056.95
     348	 1.95877	0.469516	         -1882.2	         2939.13	         1056.93
     349	 1.96181	0.467425	        -1886.74	         2943.68	         1056.93
     350	 1.96394	0.466883	        -1889.92	         2946.87	         1056.95
     351	 1.96529	0.467731	         -1891.9	          2948.9	         1057.01
     352	 1.96628	0.469259	        -1893.32	         2950.39	         1057.07
     353	 1.96747	0.470514	        -1895.06	         2952.17	         1057.11
     354	 1.96913	0.470975	        -1897.58	         2954.67	         1057.09
     355	 1.97104	0.471075	         -1900.5	         2957.52	         1057.02
     356	 1.97252	0.471998	        -1902.79	         2959.75	         1056.95
     357	 1.97292	0.474904	        -1903.42	         2960.35	         1056.93
     358	  1.9719	0.480369	        -1901.88	         2958.81	         1056.93
     359	 1.96946	0.488337	        -1898.21	         2955.16	         1056.96
     360	  1.9659	0.498283	        -1892.82	         2949.82	            1057
     361	 1.96165	0.509369	        -1886.41	         2943.44	         1057.04
     362	 1.95718	 0.52068	        -1879.68	         2936.74	         1057.06
     363	 1.95286	0.531473	        -1873.19	         2930.25	         1057.06
     364	 1.94894	0.541202	         -1867.3	         2924.38	         1057.08
     365	 1.94579	0.549178	        -1862.52	         2919.65	         1057.13
     366	 1.94399	0.554274	        -1859.77	         2916.96	         1057.19
     367	 1.94411	0.555434	        -1859.96	         2917.14	         1057.18
     368	 1.94603	0.552805	        -1862.94	         2920.02	         1057.07
     369	 1.94884	0.548029	        -1867.27	         2924.23	         1056.96
     370	 1.95145	0.543056	        -1871.24	         2928.15	         1056.91
     371	 1.95333	0.538851	        -1874.03	         2930.97	         1056.94
     372	 1.95468	0.535099	        -1875.97	         2932.99	         1057.01
     373	 1.95617	0.530653	        -1878.14	         2935.23	         1057.09
     374	 1.95854	0.524283	        -1881.67	         2938.78	         1057.12
     375	 1.96196	0.515698	        -1886.87	         2943.91	         1057.04
     376	  1.9658	0.506071	        -1892.73	         2949.67	         1056.94
     377	 1.96917	0.497046	        -1897.81	         2954.72	         1056.91
     378	  1.9718	0.489157	        -1901.68	         2958.66	         1056.98
     379	 1.97433	0.481303	        -1905.37	         2962.47	          1057.1
     380	 1.97783	0.471678	        -1910.55	         2967.71	         1057.16
     381	 1.98282	0.459408	        -1918.09	         2975.21	         1057.12
     382	 1.98897	0.445242	        -1927.39	         2984.42	         1057.04
     383	 1.99554	0.430611	        -1937.28	         2994.28	            1057
     384	 2.00199	0.416543	        -1946.98	         3003.96	         1056.98
     385	 2.00784	0.403963	        -1955.81	         3012.73	         1056.92
     386	 2.01234	0.394277	        -1962.61	         3019.48	         1056.87
     387	 2.01484	0.388719	        -1966.36	         3023.23	         1056.87
     388	 2.01517	0.387601	         -1966.8	         3023.72	         1056.92
     389	  2.0136	0.390397	         -1964.4	         3021.37	         1056.98
     390	 2.01067	0.396146	        -1959.94	         3016.97	         1057.03
     391	 2.00693	0.403783	        -1954.28	         3011.37	         1057.08
     392	 2.00297	 0.41225	        -1948.29	         3005.42	         1057.13
     393	 1.99938	0.420437	        -1942.85	         3000.03	         1057.18
     394	 1.99662	0.427438	        -1938.72	          2995.9	         1057.18
     395	  1.9947	0.433209	         -1935.9	         2993.01	         1057.11
     396	 1.99305	  0.4387	        -1933.51	         2990.55	         1057.04
     397	 1.99098	 0.44513	        -1930.45	         2987.44	         1056.99
     398	 1.98801	0.453274	        -1926.01	         2982.98	         1056.97
     399	 1.98398	 0.46335	        -1919.98	         2976.94	         1056.96
     400	 1.97892	 0.47527	        -1912.39	         2969.34	         1056.96
     401	 1.97289	0.488831	        -1903.35	          2960.3	         1056.95
     402	  1.9661	0.503589	        -1893.14	         2950.12	         1056.98
     403	 1.95906	0.518581	        -1882.52	         2939.56	         1057.04
     404	 1.95249	0.532414	        -1872.62	         2929.71	         1057.09
     405	 1.94699	0.543901	        -1864.37	         2921.46	         1057.09
     406	 1.94277	0.552573	        -1858.07	         2915.13	         1057.06
     407	 1.93975	0.558498	        -1853.55	         2910.59	         1057.04
     408	 1.93786	0.561674	         -1850.7	         2907.76	         1057.06
     409	 1.93739	0.561561	        -1849.94	         2907.05	         1057.11
     410	 1.93889	0.557145	        -1852.16	         2909.31	         1057.15
     411	  1.9427	0.547836	        -1857.92	         2915.02	          1057.1
     412	 1.94834	0.534564	        -1866.49	         2923.48	         1056.99
     413	 1.95478	0.519359	        -1876.21	         2933.14	         1056.92
     414	 1.96117	0.503842	        -1885.81	         2942.72	         1056.92
     415	 1.96717	0.488738	        -1894.79	         2951.72	         1056.93
     416	 1.97272	0.474287	         -1903.1	         2960.04	         1056.95
     417	 1.97777	0.460684	        -1910.66	         2967.62	         1056.96
     418	 1.98224	0.448182	        -1917.36	         2974.33	         1056.98
     419	 1.98615	0.436846	        -1923.18	          2980.2	         1057.02
     420	 1.98968	0.426427	        -1928.44	         2985.49	         1057.05
     421	 1.99292	0.416771	        -1933.31	         2990.35	         1057.04
     422	 1.99564	0.408348	        -1937.44	         2994.42	         1056.99
     423	 1.99724	0.402213	         -1939.9	         2996.83	         1056.93
     424	 1.99718	0.399347	        -1939.82	         2996.75	         1056.93
     425	 1.99538	0.399891	        -1937.06	         2994.05	         1056.99
     426	 1.99239	0.402846	        -1932.47	         2989.56	         1057.09
     427	 1.98914	 0.40653	         -1927.5	         2984.67	         1057.18
     428	 1.98639	 0.40953	        -1923.34	         2980.55	         1057.21
     429	 1.98447	 0.41127	        -1920.46	         2977.67	         1057.21
     430	 1.98334	0.411798	        -1918.77	         2975.98	          1057.2
     431	 1.98287	0.411334	        -1918.08	         2975.28	         1057.19
     432	 1.98289	0.410183	        -1918.14	         2975.31	         1057.17
     433	 1.98311	0.408878	        -1918.51	         2975.64	         1057.12
     434	 1.98313	0.408166	        -1918.58	         2975.66	         1057.08
     435	 1.98257	0.408724	        -1917.77	         2974.82	         1057.06
     436	 1.98129	0.410834	        -1915.84	         2972.91	         1057.07
     437	 1.97943	 0.41425	        -1913.02	         2970.12	          1057.1
     438	  1.9774	0.418247	        -1909.93	         2967.08	         1057.15
     439	 1.97576	0.421842	        -1907.42	         2964.61	         1057.19
     440	 1.97495	0.424233	        -1906.21	          2963.4	         1057.19
     441	 1.97501	0.425346	        -1906.34	         2963.48	         1057.13
     442	 1.97542	0.426071	        -1907.05	         2964.09	         1057.04
     443	 1.97539	0.427817	        -1907.08	         2964.05	         1056.98
     444	 1.97434	0.431611	        -1905.51	         2962.48	         1056.97
     445	  1.9723	0.437411	         -1902.4	         2959.43	         1057.02
     446	 1.96982	0.444209	        -1898.62	          2955.7	         1057.08
     447	 1.96749	0.450914	        -1895.12	         2952.21	         1057.09
     448	 1.96548	0.457193	        -1892.13	         2949.19	         1057.05
     449	 1.96351	0.463477	        -1889.23	         2946.24	         1057.01
     450	 1.96128	0.470277	        -1885.89	         2942.89	         1057.01
     451	 1.95879	0.477521	        -1882.11	         2939.15	         1057.05
     452	 1.95642	0.484455	         -1878.5	          2935.6	         1057.11
     453	 1.95475	0.490033	        -1875.93	         2933.09	         1057.15
     454	  1.9542	0.493429	         -1875.1	         2932.27	         1057.17
     455	  1.9549	0.494428	        -1876.18	         2933.32	         1057.14
     456	 1.95651	0.493602	        -1878.68	         2935.74	         1057.06
     457	  1.9583	0.492265	        -1881.46	         2938.42	         1056.96
     458	 1.95929	0.492157	        -1883.03	          2939.9	         1056.87
     459	 1.95863	0.494788	        -1882.09	         2938.92	         1056.83
     460	 1.95608	0.500626	        -1878.22	         2935.09	         1056.87
     461	 1.95221	0.508649	        -1872.31	         2929.29	         1056.98
     462	 1.94823	0.516689	        -1866.23	         2923.31	         1057.08
     463	 1.94532	0.522557	        -1861.84	         2918.95	         1057.12
     464	 1.94416	0.525064	        -1860.11	         2917.22	         1057.11
     465	  1.9451	0.523669	        -1861.47	         2918.62	         1057.15
     466	 1.94865	0.517427	        -1866.79	         2923.95	         1057.16
     467	 1.95476	 0.50635	        -1876.14	         2933.11	         1056.97
     468	 1.96162	0.493769	        -1886.67	          2943.4	         1056.73
     469	 1.96692	0.483937	        -1894.68	         2951.34	         1056.67
     470	 1.96967	0.478576	        -1898.73	         2955.47	         1056.74
     471	 1.97034	0.476883	        -1899.61	         2956.48	         1056.87
     472	 1.97021	0.476742	        -1899.26	         2956.28	         1057.02
     473	 1.97079	0.475551	        -1900.01	         2957.15	         1057.14
     474	 1.97315	0.471438	        -1903.57	         2960.69	         1057.12
     475	 1.97701	0.464945	        -1909.54	         2966.48	         1056.95
     476	 1.98071	0.459074	        -1915.28	         2972.04	         1056.76
     477	 1.98237	 0.45718	        -1917.86	         2974.52	         1056.66
     478	 1.98091	 0.46109	        -1915.65	         2972.33	         1056.68
     479	 1.97647	0.470498	        -1908.87	         2965.68	         1056.81
     480	  1.9703	0.483157	        -1899.41	         2956.41	            1057
     481	 1.96421	0.495716	        -1890.12	         2947.28	         1057.16
     482	 1.95986	0.505149	        -1883.52	         2940.76	         1057.24
     483	 1.95801	0.510025	        -1880.77	         2937.98	         1057.21
     484	 1.95845	0.510654	         -1881.5	         2938.64	         1057.14
     485	 1.96034	0.508443	        -1884.44	         2941.47	         1057.04
     486	 1.96261	0.505245	        -1887.94	         2944.88	         1056.95
     487	  1.9644	0.502625	        -1890.64	         2947.56	         1056.93
     488	 1.96552	0.500964	        -1892.24	         2949.24	            1057
     489	 1.96662	0.499149	         -1893.8	          2950.9	          1057.1
     490	  1.9685	0.495806	         -1896.6	         2953.71	         1057.11
     491	 1.97122	0.490903	        -1900.74	          2957.8	         1057.06
     492	 1.97431	0.485398	         -1905.4	         2962.43	         1057.03
     493	 1.97733	0.480097	        -1909.94	         2966.96	         1057.02
     494	 1.98002	0.475504	        -1913.98	            2971	         1057.02
     495	 1.98221	0.471983	        -1917.26	         2974.28	         1057.02
     496	 1.98383	0.469691	        -1919.68	         2976.71	         1057.03
     497	 1.98491	0.468622	         -1921.3	         2978.33	         1057.03
     498	 1.98537	0.468909	        -1922.02	         2979.02	            1057
     499	 1.98489	0.471105	        -1921.37	         2978.31	         1056.94
     500	 1.98302	0.476011	        -1918.61	          2975.5	         1056.89
     501	 1.97946	0.484098	        -1913.28	         2970.16	         1056.88
     502	 1.97439	0.494996	        -1905.62	         2962.55	         1056.93
     503	 1.96856	0.507312	        -1896.77	         2953.81	         1057.04
     504	 1.96341	0.518549	        -1888.87	         2946.09	         1057.21
     505	 1.96084	0.525347	        -1884.89	         2942.23	         1057.34
     506	 1.96202	0.525526	        -1886.76	            2944	         1057.24
     507	 1.96606	0.520706	        -1893.08	         2950.06	         1056.99
     508	 1.97067	0.515067	        -1900.16	         2956.97	         1056.81
     509	 1.97392	0.511951	         -1905.1	         2961.86	         1056.76
     510	   1.975	0.512766	        -1906.72	         2963.48	         1056.76
     511	 1.97375	0.517747	        -1904.82	          2961.6	         1056.78
     512	 1.97036	0.526527	        -1899.68	         2956.51	         1056.83
     513	 1.96541	0.537987	        -1892.15	         2949.08	         1056.93
     514	 1.95991	0.550206	        -1883.79	         2940.83	         1057.04
     515	 1.95493	0.561099	        -1876.25	         2933.36	         1057.12
     516	 1.95124	0.569179	        -1870.67	         2927.83	         1057.15
     517	 1.94923	0.573613	        -1867.64	         2924.82	         1057.18
     518	 1.94913	0.573923	        -1867.48	         2924.67	          1057.2
     519	 1.95103	0.569889	        -1870.32	         2927.52	          1057.2
     520	 1.95487	0.561613	        -1876.09	         2933.28	         1057.19
     521	 1.96035	0.549676	        -1884.36	         2941.49	         1057.13
     522	  1.9668	0.535321	        -1894.11	         2951.16	         1057.05
     523	 1.97332	 0.52025	        -1903.97	         2960.95	         1056.99
     524	 1.97921	 0.50587	        -1912.81	         2969.79	         1056.98
     525	 1.98431	0.492607	         -1920.4	         2977.44	         1057.04
     526	 1.98896	0.479987	        -1927.32	         2984.41	          1057.1
     527	 1.99359	0.467389	        -1934.24	         2991.36	         1057.12
     528	 1.99831	0.454757	        -1941.34	         2998.44	          1057.1
     529	 2.00283	0.442747	        -1948.16	         3005.21	         1057.05
     530	 2.00655	 0.43247	         -1953.8	         3010.79	         1056.99
     531	 2.00887	 0.42508	        -1957.32	         3014.28	         1056.95
     532	 2.00936	 0.42137	        -1958.06	         3015.01	         1056.94
     533	 2.00792	0.421497	        -1955.88	         3012.85	         1056.97
     534	 2.00486	0.424882	        -1951.23	         3008.26	         1057.03
     535	 2.00086	0.430268	        -1945.15	         3002.26	         1057.11
     536	 1.99681	0.435997	        -1938.99	         2996.18	         1057.19
     537	 1.99355	0.440471	        -1934.05	         2991.29	         1057.24
     538	 1.99166	0.442591	        -1931.21	         2988.46	         1057.25
     539	 1.99131	0.441993	        -1930.72	         2987.93	         1057.22
     540	 1.99232	0.438959	        -1932.27	         2989.45	         1057.18
     541	 1.99438	0.434033	        -1935.39	         2992.54	         1057.16
     542	 1.99731	0.427593	        -1939.78	         2996.93	         1057.15
     543	 2.00096	 0.41988	        -1945.29	         3002.42	         1057.12
     544	 2.00501	0.411564	        -1951.42	         3008.48	         1057.06
     545	 2.00879	0.403871	        -1957.15	         3014.15	            1057
     546	 2.01174	0.397882	        -1961.57	         3018.57	            1057
     547	  2.0137	0.393912	        -1964.48	         3021.52	         1057.03
     548	 2.01486	0.391651	         -1966.2	         3023.26	         1057.06
     549	 2.01541	0.390786	        -1967.03	         3024.08	         1057.05
     550	 2.01527	0.391449	        -1966.86	         3023.88	         1057.02
     551	 2.01417	0.394125	        -1965.23	         3022.22	         1056.98
     552	  2.0119	0.399133	        -1961.82	         3018.82	         1056.99
     553	  2.0087	0.406052	        -1956.95	         3014.01	         1057.06
     554	 2.00536	0.413454	        -1951.84	         3009.01	         1057.17
     555	 2.00303	0.419318	        -1948.26	         3005.52	         1057.25
     556	 2.00246	 0.42227	        -1947.44	         3004.65	         1057.22
     557	 2.00335	 0.42282	        -1948.91	         3005.99	         1057.08
     558	  2.0045	0.423123	        -1950.77	         3007.72	         1056.96
     559	 2.00474	0.425286	        -1951.16	         3008.07	         1056.92
     560	  2.0036	0.430079	        -1949.42	         3006.37	         1056.95
     561	 2.00128	0.437108	        -1945.91	         3002.89	         1056.99
     562	 1.99814	0.445729	        -1941.18	         2998.18	            1057
     563	 1.99446	0.455422	        -1935.63	         2992.66	         1057.03
     564	 1.99057	0.465539	        -1929.76	         2986.83	         1057.06
     565	 1.98696	0.475163	        -1924.31	         2981.41	          1057.1
     566	 1.98412	 0.48338	        -1920.03	         2977.15	         1057.11
     567	 1.98224	0.489792	        -1917.26	         2974.33	         1057.06
     568	  1.9809	0.495084	        -1915.38	         2972.31	         1056.94
     569	 1.97902	0.501127	        -1912.71	          2969.5	          1056.8
     570	 1.97552	0.509876	        -1907.49	         2964.25	         1056.75
     571	 1.97013	0.521752	        -1899.33	         2956.17	         1056.84
     572	  1.9638	0.535061	        -1889.68	         2946.67	         1056.99
     573	  1.9581	0.546951	           -1881	         2938.11	         1057.12
     574	 1.95432	0.555072	        -1875.31	         2932.45	         1057.15
     575	 1.95297	0.558537	        -1873.31	         2930.43	         1057.12
     576	 1.95386	0.557676	        -1874.69	         2931.76	         1057.07
     577	 1.95653	0.553318	        -1878.74	         2935.76	         1057.02
     578	  1.9604	0.546492	        -1884.62	         2941.57	         1056.95
     579	 1.96471	0.538635	        -1891.17	         2948.03	         1056.86
     580	 1.96849	0.531544	         -1896.9	          2953.7	          1056.8
     581	 1.97107	0.526506	        -1900.76	         2957.58	         1056.82
     582	 1.97256	0.523438	         -1902.9	          2959.8	         1056.91
     583	 1.97367	0.521093	        -1904.47	         2961.47	            1057
     584	 1.97524	0.518069	        -1906.78	         2963.83	         1057.06
     585	 1.97772	0.513616	         -1910.5	         2967.55	         1057.06
     586	 1.98104	0.507911	         -1915.5	         2972.52	         1057.02
     587	 1.98473	0.501791	        -1921.08	         2978.06	         1056.98
     588	 1.98825	0.496234	         -1926.4	         2983.35	         1056.94
     589	 1.99112	  0.4921	        -1930.75	         2987.65	          1056.9
     590	 1.99285	0.490239	        -1933.39	         2990.25	         1056.85
     591	 1.99295	0.491487	        -1933.58	          2990.4	         1056.82
     592	 1.99117	0.496267	        -1930.89	         2987.72	         1056.83
     593	  1.9878	0.503974	        -1925.75	         2982.68	         1056.92
     594	 1.98386	0.512759	        -1919.71	         2976.75	         1057.04
     595	 1.98055	0.520337	        -1914.68	         2971.79	         1057.11
     596	 1.97863	0.525278	         -1911.8	         2968.92	         1057.11
     597	 1.97827	0.527276	        -1911.28	         2968.38	          1057.1
     598	 1.97938	0.526449	        -1912.95	         2970.04	          1057.1
     599	 1.98181	0.523049	        -1916.62	         2973.69	         1057.07
     600	 1.98523	0.517695	         -1921.8	         2978.82	         1057.02
     601	 1.98913	0.511386	         -1927.7	         2984.67	         1056.97
     602	 1.99289	0.505269	         -1933.4	         2990.31	         1056.91
     603	 1.99591	0.500506	        -1937.96	         2994.83	         1056.87
     604	 1.99776	0.497926	        -1940.73	         2997.61	         1056.88
     605	 1.99853	0.497452	        -1941.82	         2998.76	         1056.94
     606	 1.99868	0.498245	        -1942.01	         2998.99	         1056.98
     607	 1.99854	0.499733	        -1941.82	         2998.79	         1056.97
     608	 1.99805	0.502063	        -1941.08	         2998.04	         1056.96
     609	 1.99718	 0.50527	        -1939.73	         2996.74	         1057.01
     610	 1.99635	0.508601	        -1938.41	         2995.49	         1057.08
     611	 1.99614	0.510986	        -1938.07	         2995.18	         1057.11
     612	 1.99673	 0.51208	        -1939.01	         2996.06	         1057.05
     613	 1.99757	0.512802	        -1940.39	         2997.33	         1056.94
     614	 1.99773	0.514794	        -1940.72	         2997.57	         1056.85
     615	 1.99649	0.519264	        -1938.87	         2995.71	         1056.84
     616	 1.99379	0.526231	        -1934.77	         2991.65	         1056.88
     617	 1.99018	0.534613	        -1929.27	         2986.23	         1056.96
     618	 1.98663	0.542619	        -1923.85	         2980.92	         1057.07
     619	 1.98435	0.548077	        -1920.32	         2977.49	         1057.17
     620	 1.98435	0.549104	        -1920.29	         2977.49	          1057.2
     621	 1.98689	0.545194	        -1924.19	         2981.31	         1057.12
     622	 1.99122	0.537725	         -1930.8	          2987.8	            1057
     623	 1.99608	0.528966	        -1938.17	         2995.09	         1056.92
     624	 2.00055	0.520619	        -1944.89	          3001.8	         1056.91
     625	 2.00433	0.513291	        -1950.53	         3007.47	         1056.94
     626	 2.00753	 0.50687	        -1955.29	         3012.27	         1056.97
     627	 2.01026	0.501231	         -1959.4	         3016.37	         1056.97
     628	 2.01238	0.496701	        -1962.61	         3019.54	         1056.94
     629	 2.01356	0.493917	         -1964.4	         3021.31	         1056.92
     630	 2.01361	0.493271	        -1964.44	         3021.38	         1056.93
     631	 2.01269	0.494465	        -1963.02	         3020.01	         1056.99
     632	 2.01139	0.496525	        -1960.99	         3018.05	         1057.06
     633	 2.01035	 0.49827	        -1959.39	          3016.5	          1057.1
     634	 2.01005	0.498897	        -1958.93	         3016.04	         1057.11
     635	 2.01058	0.498243	        -1959.74	         3016.84	          1057.1
     636	 2.01186	 0.49651	        -1961.66	         3018.76	          1057.1
     637	 2.01377	0.493898	        -1964.53	         3021.63	          1057.1
     638	 2.01614	0.490742	        -1968.13	         3025.18	         1057.06
     639	  2.0185	 0.48788	        -1971.73	         3028.73	         1056.99
     640	 2.02017	0.486535	        -1974.29	         3031.23	         1056.93
     641	 2.02053	 0.48777	        -1974.86	         3031.76	          1056.9
     642	 2.01929	0.492041	        -1972.98	          3029.9	         1056.91
     643	 2.01659	0.499013	        -1968.88	         3025.85	         1056.97
     644	 2.01302	 0.50755	        -1963.45	          3020.5	         1057.05
     645	  2.0095	0.515932	        -1958.07	         3015.22	         1057.15
     646	   2.007	0.522344	        -1954.25	         3011.46	         1057.22
     647	 2.00624	0.525419	        -1953.08	         3010.33	         1057.25
     648	  2.0076	0.524508	        -1955.11	         3012.37	         1057.25
     649	 2.01102	0.519702	        -1960.29	          3017.5	         1057.22
     650	 2.01604	0.511898	        -1967.89	         3025.03	         1057.13
     651	 2.02173	0.502813	        -1976.56	         3033.57	         1057.01
     652	 2.02688	0.494725	         -1984.4	         3041.29	         1056.89
     653	 2.03024	0.489926	        -1989.55	         3046.34	         1056.79
     654	 2.03089	0.490118	        -1990.57	         3047.31	         1056.74
     655	 2.02842	0.496029	        -1986.86	         3043.59	         1056.74
     656	   2.023	0.507286	        -1978.69	         3035.47	         1056.78
     657	 2.01538	 0.52249	        -1967.18	         3024.04	         1056.87
     658	 2.00672	0.539466	        -1954.07	         3011.05	         1056.97
     659	 1.99835	 0.55569	        -1941.42	         2998.49	         1057.07
     660	 1.99157	0.568767	        -1931.16	         2988.32	         1057.16
     661	 1.98742	0.576787	         -1924.9	         2982.09	         1057.19
     662	 1.98633	0.578921	        -1923.34	         2980.46	         1057.12
     663	  1.9876	0.576397	        -1925.43	         2982.37	         1056.94
     664	 1.98957	0.572212	        -1928.54	         2985.32	         1056.78
     665	 1.99058	0.569276	        -1930.15	         2986.83	         1056.69
     666	 1.98963	0.569316	        -1928.75	         2985.41	         1056.66
     667	 1.98651	0.572701	        -1923.99	         2980.73	         1056.73
     668	 1.98201	0.578033	        -1917.07	         2973.98	         1056.91
     669	 1.97786	0.582205	        -1910.66	         2967.76	          1057.1
     670	 1.97587	0.581953	         -1907.6	         2964.78	         1057.18
     671	 1.97688	0.575803	        -1909.17	          2966.3	         1057.13
     672	 1.98051	0.564493	         -1914.7	         2971.74	         1057.03
     673	 1.98583	 0.54974	        -1922.74	         2979.71	         1056.97
     674	 1.99201	0.533091	        -1932.05	         2988.98	         1056.93
     675	 1.99844	0.515744	        -1941.73	         2998.63	          1056.9
     676	 2.00467	0.498672	        -1951.09	         3007.97	         1056.89
     677	 2.01027	0.482763	         -1959.5	         3016.37	         1056.87
     678	 2.01481	0.468901	        -1966.32	         3023.19	         1056.87
     679	 2.01812	0.457557	        -1971.23	         3028.14	         1056.91
     680	 2.02034	0.448496	        -1974.52	         3031.48	         1056.96
     681	 2.02176	0.441279	        -1976.63	         3033.61	         1056.98
     682	 2.02241	0.435887	        -1977.62	         3034.58	         1056.96
     683	 2.02207	0.432708	        -1977.13	         3034.08	         1056.94
     684	  2.0206	0.432033	        -1974.91	         3031.86	         1056.95
     685	 2.01809	0.433639	        -1971.11	          3028.1	         1056.99
     686	 2.01492	0.436838	        -1966.32	         3023.34	         1057.02
     687	 2.01149	0.440843	        -1961.16	         3018.21	         1057.05
     688	 2.00819	0.444964	        -1956.17	         3013.25	         1057.08
     689	 2.00533	0.448549	        -1951.88	         3008.97	         1057.09
     690	 2.00308	0.451245	        -1948.53	          3005.6	         1057.07
     691	 2.00132	0.453239	        -1945.91	         3002.95	         1057.04
     692	  1.9999	0.454783	        -1943.76	         3000.82	         1057.06
     693	 1.99895	0.455652	        -1942.31	          2999.4	         1057.08
     694	 1.99863	0.455537	        -1941.86	         2998.92	         1057.06
     695	 1.99869	0.454905	        -1942.01	            2999	         1056.99
     696	 1.99847	0.454933	        -1941.73	         2998.67	         1056.94
     697	 1.99744	 0.45655	        -1940.19	         2997.13	         1056.94
     698	 1.99556	0.459816	        -1937.33	         2994.31	         1056.98
     699	 1.99318	0.464058	        -1933.71	         2990.74	         1057.03
     700	 1.99086	0.468268	        -1930.18	         2987.26	         1057.08
     701	 1.98915	0.471443	        -1927.57	         2984.69	         1057.12
     702	 1.98848	0.472778	        -1926.54	         2983.68	         1057.15
     703	 1.98909	0.471797	        -1927.47	         2984.61	         1057.14
     704	  1.9909	0.468618	        -1930.22	         2987.31	         1057.09
     705	 1.99335	0.464151	        -1933.98	            2991	         1057.02
     706	 1.99572	0.459686	        -1937.58	         2994.55	         1056.97
     707	 1.99747	0.456151	         -1940.2	         2997.17	         1056.97
     708	 1.99855	0.453632	        -1941.77	          2998.8	         1057.02
     709	  1.9994	0.451399	        -1942.98	         3000.07	         1057.09
     710	  2.0006	0.448448	        -1944.74	         3001.86	         1057.12
     711	  2.0024	0.444363	        -1947.48	         3004.57	         1057.09
     712	 2.00448	0.439785	        -1950.68	          3007.7	         1057.02
     713	 2.00615	0.436017	        -1953.23	         3010.19	         1056.96
     714	 2.00678	0.434159	         -1954.2	         3011.14	         1056.95
     715	 2.00622	0.434531	        -1953.32	         3010.29	         1056.98
     716	  2.0047	0.436682	        -1950.98	         3008.02	         1057.03
     717	 2.00271	0.439739	        -1947.95	         3005.04	         1057.09
     718	  2.0008	0.442733	        -1945.02	         3002.17	         1057.15
     719	 1.99946	 0.44475	        -1942.96	         3000.16	         1057.19
     720	 1.99911	0.445032	        -1942.41	         2999.64	         1057.23
     721	 2.00005	0.443074	         -1943.8	         3001.04	         1057.24
     722	 2.00232	0.438805	        -1947.22	         3004.44	         1057.22
     723	 2.00559	0.432825	         -1952.2	         3009.36	         1057.15
     724	 2.00915	0.426474	        -1957.64	          3014.7	         1057.06
     725	 2.01204	0.421518	        -1962.06	         3019.03	         1056.97
     726	 2.01342	0.419505	        -1964.17	          3021.1	         1056.93
     727	 2.01293	0.421127	        -1963.42	         3020.37	         1056.95
     728	 2.01087	0.425917	        -1960.26	         3017.27	         1057.02
     729	 2.00794	0.432597	        -1955.82	         3012.88	         1057.06
     730	 2.00469	0.440148	        -1950.98	            3008	         1057.02
     731	 2.00095	 0.44876	        -1945.47	         3002.39	         1056.92
     732	 1.99614	0.459364	        -1938.31	         2995.19	         1056.88
     733	 1.99017	0.472022	        -1929.28	         2986.23	         1056.95
     734	 1.98398	0.484917	        -1919.84	         2976.94	          1057.1
     735	 1.97913	0.495142	        -1912.47	         2969.67	          1057.2
     736	 1.97667	0.500763	         -1908.8	         2965.97	         1057.17
     737	 1.97651	0.501914	        -1908.65	         2965.74	         1057.09
     738	   1.978	0.499805	        -1910.93	         2967.97	         1057.04
     739	 1.98057	0.495448	         -1914.8	         2971.82	         1057.02
     740	 1.98387	0.489482	        -1919.76	         2976.78	         1057.01
     741	 1.98761	0.482512	        -1925.38	         2982.38	            1057
     742	 1.99143	0.475239	        -1931.14	         2988.12	         1056.98
     743	 1.99493	0.468456	        -1936.42	         2993.37	         1056.94
     744	 1.99762	0.463071	        -1940.49	          2997.4	         1056.91
     745	 1.99898	0.460019	        -1942.56	         2999.43	         1056.87
     746	 1.99861	0.459992	        -1942.01	         2998.89	         1056.87
     747	 1.99645	0.463082	        -1938.74	         2995.65	         1056.91
     748	 1.99287	0.468588	        -1933.28	         2990.27	         1056.98
     749	 1.98859	0.475139	        -1926.79	         2983.86	         1057.07
     750	 1.98456	0.481049	        -1920.65	         2977.81	         1057.16
     751	 1.98167	0.484693	        -1916.24	         2973.47	         1057.23
     752	  1.9806	0.484843	        -1914.62	         2971.87	         1057.26
     753	 1.98164	0.481028	         -1916.2	         2973.44	         1057.23
     754	 1.98455	0.473749	        -1920.62	         2977.79	         1057.17
     755	 1.98863	0.464293	        -1926.82	         2983.91	         1057.09
     756	 1.99309	0.454204	        -1933.56	          2990.6	         1057.04
     757	 1.99725	0.444769	        -1939.83	         2996.85	         1057.01
     758	 2.00074	0.436794	        -1945.08	         3002.08	            1057
     759	 2.00332	0.430767	        -1948.97	         3005.95	         1056.98
     760	 2.00473	0.427231	        -1951.12	         3008.06	         1056.94
     761	 2.00455	0.426935	         -1950.9	         3007.79	         1056.89
     762	 2.00248	 0.43044	         -1947.8	         3004.69	         1056.89
     763	 1.99868	0.437423	        -1942.05	            2999	         1056.95
     764	 1.99387	0.446527	        -1934.76	         2991.78	         1057.01
     765	 1.98882	0.456216	        -1927.17	          2984.2	         1057.03
     766	 1.98385	0.465768	        -1919.75	         2976.75	            1057
     767	   1.979	0.475009	        -1912.44	         2969.47	         1057.03
     768	  1.9747	0.483049	        -1905.87	         2963.01	         1057.14
     769	 1.97192	0.487976	        -1901.62	         2958.85	         1057.23
     770	 1.97147	0.488275	        -1900.97	         2958.18	         1057.21
     771	 1.97313	  0.4843	        -1903.56	         2960.67	          1057.1
     772	 1.97589	0.477881	        -1907.79	          2964.8	         1057.01
     773	 1.97877	0.470774	        -1912.13	         2969.12	         1056.99
     774	 1.98142	0.463649	        -1916.07	         2973.09	         1057.03
     775	 1.98407	0.456155	        -1919.99	         2977.08	         1057.08
     776	 1.98715	 0.44763	        -1924.59	          2981.7	         1057.11
     777	 1.99091	0.437757	        -1930.21	         2987.33	         1057.12
     778	 1.99532	0.426672	        -1936.84	         2993.95	         1057.11
     779	 2.00022	0.414777	        -1944.21	          3001.3	         1057.09
     780	 2.00531	0.402692	        -1951.87	         3008.93	         1057.06
     781	 2.01025	0.391137	         -1959.3	         3016.35	         1057.04
     782	 2.01476	0.380717	        -1966.09	         3023.11	         1057.03
     783	 2.01855	0.372022	        -1971.81	          3028.8	         1056.99
     784	 2.02124	0.365824	        -1975.87	         3032.83	         1056.96
     785	 2.02249	0.362789	        -1977.74	          3034.7	         1056.96
     786	 2.02228	0.362996	        -1977.39	         3034.39	            1057
     787	 2.02098	 0.36584	        -1975.39	         3032.44	         1057.06
     788	 2.01911	0.370385	        -1972.54	         3029.63	         1057.09
     789	 2.01703	0.375961	        -1969.43	         3026.51	         1057.08
     790	 2.01467	0.382633	        -1965.95	         3022.98	         1057.02
     791	 2.01161	0.391112	        -1961.42	         3018.38	         1056.97
     792	 2.00735	0.402144	        -1955.06	            3012	         1056.93
     793	 2.00171	0.415945	         -1946.6	         3003.54	         1056.94
     794	 1.99494	0.431942	        -1936.38	         2993.38	            1057
     795	 1.98772	0.448782	        -1925.47	         2982.55	         1057.08
     796	 1.98106	 0.46455	        -1915.39	         2972.57	         1057.17
     797	 1.97609	 0.47717	        -1907.86	         2965.11	         1057.25
     798	  1.9737	0.484971	        -1904.25	         2961.52	         1057.27
     799	 1.97416	0.487423	        -1905.02	         2962.21	          1057.2
     800	 1.97692	0.485533	        -1909.27	         2966.35	         1057.08
     801	 1.98092	0.481228	        -1915.38	         2972.34	         1056.96
     802	 1.98499	0.476582	        -1921.61	         2978.45	         1056.84
     803	 1.98789	0.473821	        -1926.09	          2982.8	         1056.71
     804	 1.98856	 0.47492	        -1927.11	          2983.8	         1056.69
     805	 1.98693	0.480071	        -1924.53	         2981.37	         1056.83
     806	 1.98434	0.486932	        -1920.45	         2977.47	         1057.03
     807	 1.98244	0.492446	        -1917.56	         2974.63	         1057.07
     808	 1.98168	0.495787	        -1916.53	         2973.49	         1056.96
     809	 1.98119	0.498493	        -1915.89	         2972.76	         1056.87
     810	 1.98019	0.501889	        -1914.36	         2971.25	         1056.89
     811	 1.97886	0.505553	        -1912.25	         2969.25	         1057.01
     812	 1.97828	 0.50757	        -1911.24	         2968.39	         1057.15
     813	 1.97972	0.505718	        -1913.35	         2970.55	          1057.2
     814	 1.98351	0.499398	        -1919.15	         2976.24	         1057.09
     815	 1.98859	 0.49061	        -1926.93	         2983.85	         1056.93
     816	 1.99334	0.482323	        -1934.12	         2990.97	         1056.85
     817	  1.9968	0.476293	        -1939.28	         2996.16	         1056.88
     818	 1.99905	0.472451	        -1942.57	         2999.55	         1056.98
     819	 2.00082	0.469621	        -1945.13	          3002.2	         1057.07
     820	 2.00281	 0.46662	        -1948.09	         3005.19	          1057.1
     821	 2.00519	0.463226	        -1951.72	         3008.76	         1057.04
     822	 2.00738	0.460498	        -1955.11	         3012.04	         1056.94
     823	 2.00838	0.460204	         -1956.7	         3013.53	         1056.84
     824	 2.00726	0.463912	        -1955.08	         3011.86	         1056.78
     825	 2.00366	0.472245	        -1949.65	         3006.46	          1056.8
     826	 1.99805	0.484287	        -1941.12	         2998.04	         1056.92
     827	  1.9919	0.497371	        -1931.72	         2988.82	         1057.11
     828	 1.98716	0.507944	        -1924.48	         2981.71	         1057.23
     829	 1.98517	0.513529	         -1921.5	         2978.72	         1057.21
     830	 1.98599	0.513968	        -1922.84	         2979.95	         1057.11
     831	  1.9887	0.510856	        -1927.04	         2984.01	         1056.97
     832	 1.99186	0.506648	        -1931.94	         2988.76	         1056.82
     833	 1.99402	0.503927	        -1935.27	            2992	         1056.73
     834	 1.99437	0.504182	        -1935.74	         2992.52	         1056.78
     835	 1.99349	0.506509	         -1934.2	          2991.2	            1057
     836	 1.99337	0.507467	        -1933.79	         2991.02	         1057.23
     837	 1.99591	 0.50368	        -1937.61	         2994.83	         1057.22
     838	 2.00099	0.495479	        -1945.43	         3002.46	         1057.03
     839	 2.00681	0.486221	         -1954.3	         3011.18	         1056.88
     840	 2.01178	0.478699	        -1961.77	         3018.64	         1056.87
     841	 2.01553	0.473597	        -1967.33	         3024.26	         1056.93
     842	 2.01842	0.470256	        -1971.64	          3028.6	         1056.96
     843	 2.02062	0.468396	        -1974.99	          3031.9	          1056.9
     844	 2.02162	0.468942	        -1976.57	         3033.39	         1056.83
     845	 2.02077	0.473045	         -1975.3	         3032.12	         1056.82
     846	 2.01799	0.480773	        -1971.07	         3027.95	         1056.88
     847	 2.01394	0.490905	        -1964.89	         3021.87	         1056.98
     848	  2.0096	0.501598	        -1958.31	         3015.38	         1057.06
     849	 2.00591	  0.5112	        -1952.71	         3009.83	         1057.11
     850	 2.00338	0.518718	        -1948.93	         3006.04	         1057.12
     851	  2.0021	 0.52401	        -1947.06	         3004.12	         1057.06
     852	 2.00157	  0.5279	        -1946.36	         3003.32	         1056.96
     853	 2.00089	0.531955	        -1945.45	         3002.31	         1056.86
     854	 1.99929	0.537568	        -1943.06	          2999.9	         1056.84
     855	 1.99671	0.544805	        -1939.11	         2996.03	         1056.92
     856	 1.99398	0.552152	        -1934.92	         2991.94	         1057.01
     857	   1.992	0.557953	        -1931.95	         2988.96	         1057.01
     858	 1.99083	0.562076	        -1930.27	         2987.21	         1056.94
     859	 1.98985	0.565612	        -1928.86	         2985.74	         1056.88
     860	 1.98844	0.569622	        -1926.77	         2983.63	         1056.86
     861	 1.98638	0.574471	        -1923.64	         2980.54	         1056.89
     862	 1.98389	0.579749	        -1919.84	          2976.8	         1056.96
     863	 1.98152	0.584466	        -1916.22	         2973.25	         1057.03
     864	 1.97995	0.587441	        -1913.81	         2970.89	         1057.08
     865	 1.97967	0.587785	        -1913.38	         2970.48	          1057.1
     866	 1.98082	0.585283	        -1915.13	         2972.19	         1057.07
     867	 1.98307	0.580508	        -1918.56	         2975.57	         1057.01
     868	  1.9858	0.574578	        -1922.73	         2979.66	         1056.94
     869	 1.98825	0.568821	        -1926.48	         2983.35	         1056.87
     870	 1.98974	0.564475	        -1928.75	         2985.58	         1056.83
     871	 1.98987	 0.56225	        -1928.93	         2985.78	         1056.85
     872	 1.98879	0.561898	        -1927.23	         2984.15	         1056.92
     873	 1.98715	0.562235	        -1924.69	          2981.7	         1057.01
     874	 1.98581	0.561768	        -1922.61	         2979.68	         1057.07
     875	 1.98541	0.559327	        -1921.98	         2979.08	          1057.1
     876	 1.98635	0.554252	        -1923.38	         2980.49	         1057.11
     877	 1.98876	 0.54632	        -1927.01	          2984.1	         1057.09
     878	 1.99251	0.535781	        -1932.69	         2989.73	         1057.04
     879	 1.99719	 0.52346	        -1939.78	         2996.76	         1056.97
     880	 2.00223	0.510491	        -1947.39	         3004.32	         1056.93
     881	 2.00718	0.497808	        -1954.84	         3011.75	         1056.91
     882	 2.01176	0.486059	        -1961.72	         3018.61	         1056.88
     883	 2.01566	0.475906	         -1967.6	         3024.46	         1056.86
     884	 2.01862	0.467987	        -1972.04	         3028.89	         1056.86
     885	 2.02049	 0.46261	        -1974.83	         3031.71	         1056.88
     886	 2.02131	0.459756	        -1976.04	         3032.93	         1056.88
     887	 2.02102	0.459479	        -1975.63	          3032.5	         1056.87
     888	 2.01949	0.462021	        -1973.34	         3030.21	         1056.87
     889	 2.01677	0.467265	        -1969.19	         3026.12	         1056.92
     890	 2.01335	0.474245	        -1963.98	         3020.99	            1057
     891	 2.00997	0.481548	        -1958.88	         3015.93	         1057.05
     892	 2.00707	0.488308	        -1954.56	         3011.58	         1057.02
     893	 2.00452	0.494654	        -1950.79	         3007.76	         1056.97
     894	 2.00198	0.501104	        -1946.98	         3003.94	         1056.96
     895	 1.99941	0.507609	        -1943.09	         3000.08	         1056.99
     896	 1.99717	0.513414	         -1939.7	         2996.73	         1057.02
     897	 1.99553	0.517941	        -1937.28	         2994.27	         1056.99
     898	 1.99428	0.521528	        -1935.46	         2992.39	         1056.93
     899	 1.99289	 0.52507	        -1933.41	          2990.3	         1056.89
     900	 1.99095	0.529223	        -1930.51	          2987.4	         1056.89
     901	 1.98848	0.533935	        -1926.76	         2983.69	         1056.93
     902	  1.9859	0.538429	        -1922.81	         2979.81	            1057
     903	 1.98383	0.541545	        -1919.66	         2976.72	         1057.06
     904	 1.98292	0.542164	        -1918.24	         2975.36	         1057.11
     905	 1.98368	0.539412	        -1919.34	         2976.48	         1057.15
     906	 1.98636	0.532827	        -1923.37	         2980.51	         1057.14
     907	 1.99086	0.522672	        -1930.17	         2987.26	          1057.1
     908	 1.99663	0.509996	        -1938.88	         2995.91	         1057.03
     909	 2.00293	0.496211	        -1948.39	         3005.37	         1056.98
     910	 2.00906	0.482688	        -1957.62	         3014.55	         1056.93
     911	 2.01435	0.470689	        -1965.61	          3022.5	         1056.89
     912	 2.01826	0.461321	         -1971.5	         3028.36	         1056.86
     913	 2.02041	0.455323	        -1974.72	         3031.58	         1056.86
     914	 2.02073	0.452868	        -1975.17	         3032.06	          1056.9
     915	 2.01944	0.453558	        -1973.18	         3030.13	         1056.94
     916	 2.01697	0.456596	        -1969.43	         3026.43	            1057
     917	 2.01381	0.461058	        -1964.65	         3021.69	         1057.04
     918	 2.01043	 0.46604	        -1959.53	         3016.61	         1057.08
     919	 2.00728	0.470655	        -1954.76	         3011.88	         1057.13
     920	 2.00484	0.474001	        -1951.06	         3008.22	         1057.17
     921	 2.00352	0.475294	        -1949.07	         3006.26	         1057.19
     922	 2.00353	0.474173	         -1949.1	         3006.27	         1057.17
     923	 2.00468	 0.47097	        -1950.88	            3008	         1057.12
     924	 2.00648	0.466613	        -1953.62	         3010.68	         1057.06
     925	 2.00836	0.462147	        -1956.47	          3013.5	         1057.03
     926	 2.01002	0.458194	        -1958.95	            3016	         1057.05
     927	 2.01156	0.454689	        -1961.22	         3018.31	         1057.09
     928	 2.01329	0.451152	        -1963.79	          3020.9	         1057.11
     929	 2.01535	0.447399	         -1966.9	         3023.99	         1057.09
     930	 2.01747	0.443969	        -1970.13	         3027.17	         1057.04
     931	 2.01914	0.441802	        -1972.69	         3029.68	         1056.99
     932	 2.01988	0.441745	        -1973.85	          3030.8	         1056.95
     933	 2.01933	0.444402	        -1973.06	         3029.97	         1056.91
     934	 2.01723	0.450158	        -1969.94	         3026.82	         1056.88
     935	  2.0135	0.459071	        -1964.35	         3021.22	         1056.87
     936	 2.00835	0.470634	        -1956.59	          3013.5	         1056.91
     937	 2.00258	0.483377	        -1947.81	         3004.84	         1057.03
     938	 1.99768	0.494584	         -1940.3	         2997.48	         1057.19
     939	 1.99522	0.501291	        -1936.58	          2993.8	         1057.23
     940	 1.99564	0.502654	        -1937.34	         2994.43	         1057.08
     941	 1.99774	 0.50079	        -1940.67	         2997.58	         1056.92
     942	 1.99993	0.498551	        -1944.01	         3000.86	         1056.85
     943	 2.00135	0.497385	        -1946.12	         3002.99	         1056.87
     944	 2.00202	0.497283	        -1947.08	         3004.01	         1056.93
     945	 2.00238	0.497545	        -1947.55	         3004.55	         1056.99
     946	 2.00298	0.497273	         -1948.4	         3005.44	         1057.04
     947	 2.00422	0.495791	        -1950.25	         3007.29	         1057.04
     948	 2.00603	0.493255	        -1953.03	         3010.01	         1056.97
     949	 2.00774	0.490876	         -1955.7	         3012.59	         1056.89
     950	 2.00851	0.490208	        -1956.89	         3013.73	         1056.84
     951	 2.00779	0.492147	         -1955.8	         3012.66	         1056.85
     952	 2.00562	0.496613	        -1952.49	          3009.4	          1056.9
     953	 2.00245	0.502757	        -1947.65	         3004.64	         1056.98
     954	 1.99902	0.509198	        -1942.42	         2999.49	         1057.07
     955	 1.99617	0.514392	        -1938.08	         2995.22	         1057.14
     956	 1.99455	0.517133	        -1935.62	         2992.79	         1057.17
     957	 1.99437	0.516976	        -1935.38	         2992.53	         1057.15
     958	  1.9954	0.514332	        -1936.98	         2994.07	         1057.09
     959	 1.99709	0.510169	        -1939.57	          2996.6	         1057.03
     960	  1.9988	0.505607	        -1942.18	         2999.17	         1056.99
     961	 2.00005	0.501553	        -1944.08	         3001.05	         1056.97
     962	  2.0007	0.498325	        -1945.01	         3002.02	         1057.01
     963	 2.00107	0.495433	        -1945.49	         3002.58	         1057.08
     964	 2.00182	0.491795	        -1946.55	          3003.7	         1057.15
     965	 2.00354	0.486453	        -1949.11	         3006.28	         1057.16
     966	 2.00632	0.479332	        -1953.34	         3010.45	         1057.11
     967	  2.0096	0.471501	        -1958.38	         3015.38	            1057
     968	 2.01238	0.464807	        -1962.65	         3019.54	         1056.89
     969	  2.0136	0.461127	        -1964.56	         3021.37	         1056.81
     970	 2.01263	0.461567	        -1963.11	         3019.92	         1056.81
     971	 2.00957	0.465925	        -1958.44	         3015.32	         1056.88
     972	 2.00525	0.472662	        -1951.85	         3008.84	         1056.99
     973	 2.00088	0.479553	        -1945.22	         3002.29	         1057.08
     974	  1.9975	0.484732	        -1940.12	         2997.21	          1057.1
     975	 1.99552	0.487402	        -1937.18	         2994.25	         1057.07
     976	 1.99483	0.487766	        -1936.21	         2993.22	         1057.01
     977	 1.99497	0.486616	        -1936.47	         2993.42	         1056.95
     978	 1.99531	0.485009	        -1937.04	         2993.94	          1056.9
     979	  1.9954	0.483795	        -1937.17	         2994.07	          1056.9
     980	 1.99517	0.483058	        -1936.78	         2993.73	         1056.95
     981	 1.99502	0.482117	        -1936.48	         2993.49	         1057.02
     982	 1.99539	0.480148	           -1937	         2994.05	         1057.05
     983	 1.99654	0.476721	        -1938.71	         2995.78	         1057.06
     984	 1.99851	0.471814	        -1941.67	         2998.73	         1057.07
     985	 2.00124	0.465598	        -1945.76	         3002.82	         1057.06
     986	 2.00456	 0.45841	        -1950.77	          3007.8	         1057.03
     987	 2.00805	0.451039	        -1956.09	         3013.05	         1056.96
     988	 2.01092	0.444966	         -1960.5	         3017.35	         1056.86
     989	  2.0122	0.441949	        -1962.48	         3019.27	         1056.78
     990	 2.01125	0.443133	        -1961.06	         3017.84	         1056.78
     991	 2.00817	0.448347	        -1956.36	         3013.22	         1056.85
     992	 2.00372	0.456165	        -1949.61	         3006.55	         1056.94
     993	 1.99889	0.464777	        -1942.31	          2999.3	            1057
     994	  1.9944	0.472819	        -1935.55	         2992.57	         1057.02
     995	 1.99066	0.479485	        -1929.94	         2986.96	         1057.02
     996	 1.98779	0.484424	        -1925.66	         2982.65	            1057
     997	 1.98566	0.487799	        -1922.47	         2979.45	         1056.98
     998	 1.98418	 0.48973	        -1920.21	         2977.24	         1057.03
     999	  1.9838	0.489443	        -1919.55	         2976.67	         1057.12
