    Step 	 temperature 	 pressure 	 Potential Energy 	 Kinetic Energy 	 Sum Energy

       0	 1.87565	-0.887184	        -2364.36	         2817.39	          453.03
       1	 1.87609	-0.886703	        -2365.01	         2818.04	         453.025
       2	 1.87738	-0.88522	        -2366.95	         2819.97	         453.021
       3	  1.8795	-0.882652	        -2370.14	         2823.15	         453.016
       4	 1.88239	-0.878847	        -2374.49	          2827.5	         453.006
       5	   1.886	-0.873582	        -2379.91	         2832.91	         452.993
       6	  1.8902	-0.866538	        -2386.24	         2839.21	         452.974
       7	 1.89485	-0.857282	        -2393.24	         2846.19	         452.948
       8	 1.89974	-0.845234	        -2400.61	         2853.52	         452.912
       9	 1.90457	-0.82962	        -2407.91	         2860.77	         452.862
      10	 1.90894	-0.809425	        -2414.53	         2867.32	         452.794
      11	 1.91231	-0.783343	        -2419.67	         2872.37	         452.705
      12	 1.91399	-0.749777	        -2422.29	         2874.89	         452.598
      13	  1.9132	-0.706974	        -2421.23	         2873.72	         452.488
      14	 1.90927	-0.653438	         -2415.4	         2867.81	         452.407
      15	 1.90184	-0.588592	         -2404.3	         2856.67	         452.377
      16	 1.89111	-0.513188	         -2388.2	         2840.58	         452.378
      17	 1.87757	-0.428809	        -2367.88	         2820.26	         452.378
      18	 1.86176	-0.337187	        -2344.14	         2796.54	         452.396
      19	 1.84435	-0.240428	        -2317.98	         2770.43	          452.45
      20	 1.82625	-0.141234	        -2290.76	         2743.28	         452.514
      21	  1.8084	-0.0424283	        -2263.93	          2716.5	          452.57
      22	 1.79165	0.053449	        -2238.76	         2691.38	         452.621
      23	 1.77672	0.144175	        -2216.32	         2668.99	         452.668
      24	 1.76423	 0.22783	        -2197.54	         2650.25	         452.708
      25	 1.75465	0.302875	        -2183.15	         2635.88	         452.732
      26	 1.74828	0.368296	        -2173.59	         2626.32	         452.732
      27	 1.74513	 0.42377	        -2168.91	         2621.61	         452.702
      28	 1.74494	0.469786	        -2168.67	         2621.31	         452.637
      29	 1.74708	0.507634	        -2171.98	         2624.53	         452.545
      30	 1.75077	0.539133	        -2177.61	         2630.06	         452.452
      31	 1.75527	0.566009	        -2184.42	         2636.81	         452.388
      32	 1.76025	0.589115	        -2191.89	         2644.28	         452.389
      33	 1.76616	0.607616	        -2200.64	         2653.15	         452.515
      34	 1.77454	0.618163	        -2213.04	         2665.72	         452.677
      35	 1.78661	0.617743	        -2231.31	         2683.83	         452.513
      36	 1.80091	0.610202	        -2253.07	         2705.27	         452.203
      37	 1.81454	0.602868	        -2273.61	         2725.72	         452.113
      38	 1.82611	0.599111	         -2290.9	         2743.07	         452.176
      39	 1.83582	0.598629	        -2305.38	         2757.63	         452.255
      40	 1.84431	0.600161	        -2318.07	         2770.37	         452.299
      41	 1.85203	0.602864	        -2329.67	         2781.96	         452.285
      42	 1.85891	0.606978	        -2340.08	         2792.28	         452.205
      43	 1.86436	0.613951	        -2348.34	         2800.45	         452.112
      44	 1.86773	0.625279	        -2353.42	         2805.51	          452.09
      45	  1.8691	 0.64076	        -2355.38	         2807.57	         452.183
      46	 1.86961	0.657662	        -2355.98	         2808.33	         452.352
      47	 1.87103	0.671711	        -2357.98	         2810.46	         452.479
      48	 1.87471	0.679632	         -2363.5	         2815.98	         452.479
      49	 1.88083	0.680995	        -2372.77	         2825.16	         452.388
      50	 1.88862	0.677624	        -2384.56	         2836.84	         452.284
      51	 1.89704	0.671951	        -2397.27	         2849.47	         452.196
      52	 1.90516	0.666161	        -2409.52	         2861.65	         452.131
      53	 1.91233	0.661861	         -2420.3	          2872.4	         452.107
      54	 1.91841	0.659549	        -2429.36	         2881.53	         452.172
      55	 1.92403	0.657891	        -2437.68	         2889.96	         452.276
      56	 1.92987	0.655195	        -2446.52	         2898.72	         452.204
      57	 1.93516	0.653392	        -2454.64	         2906.64	         451.999
      58	 1.93805	0.657022	        -2459.06	         2910.98	         451.923
      59	 1.93767	0.668134	         -2458.4	         2910.41	         452.011
      60	 1.93468	0.685047	        -2453.77	         2905.92	         452.158
      61	 1.93047	0.704367	        -2447.35	         2899.61	         452.263
      62	 1.92625	0.723147	        -2440.98	         2893.29	         452.304
      63	  1.9228	0.739502	        -2435.76	         2888.11	         452.345
      64	 1.92086	0.751583	        -2432.79	          2885.2	          452.41
      65	 1.92119	 0.75741	        -2433.31	         2885.69	          452.38
      66	  1.9237	0.757091	        -2437.23	         2889.46	         452.237
      67	 1.92744	0.753038	        -2442.91	         2895.07	         452.165
      68	 1.93178	0.746738	        -2449.41	         2901.57	          452.16
      69	 1.93647	0.738657	        -2456.51	         2908.61	         452.103
      70	 1.94103	0.730134	        -2463.37	         2915.46	         452.088
      71	 1.94531	0.721764	        -2469.69	         2921.87	         452.178
      72	  1.9499	0.712188	        -2476.49	         2928.76	         452.274
      73	 1.95546	0.699997	        -2484.83	          2937.1	         452.279
      74	 1.96187	 0.68568	        -2494.51	         2946.71	         452.201
      75	 1.96819	0.671565	        -2504.09	         2956.19	         452.098
      76	 1.97323	0.660523	        -2511.73	         2963.76	         452.031
      77	 1.97616	0.654563	        -2516.11	         2968.14	          452.03
      78	 1.97681	0.654038	        -2517.03	         2969.12	         452.091
      79	 1.97568	0.657717	        -2515.25	         2967.43	         452.183
      80	 1.97367	0.663487	        -2512.15	         2964.41	         452.264
      81	  1.9716	  0.6693	           -2509	          2961.3	         452.304
      82	 1.97002	0.673834	        -2506.62	         2958.94	         452.313
      83	 1.96921	0.676413	        -2505.42	         2957.73	         452.308
      84	 1.96926	0.676795	        -2505.54	          2957.8	         452.268
      85	  1.9699	0.675601	        -2506.57	         2958.75	          452.18
      86	 1.97044	0.674455	        -2507.47	         2959.56	         452.099
      87	 1.97028	0.674855	        -2507.24	         2959.33	         452.089
      88	 1.96941	0.676879	        -2505.88	         2958.02	         452.139
      89	 1.96824	0.679461	        -2504.11	         2956.27	         452.163
      90	 1.96706	0.681932	        -2502.34	         2954.49	         452.155
      91	 1.96592	0.684181	         -2500.6	         2952.79	         452.193
      92	 1.96526	0.685236	        -2499.51	         2951.79	         452.289
      93	 1.96588	0.683107	        -2500.37	         2952.73	         452.358
      94	 1.96837	0.676444	        -2504.13	         2956.46	         452.335
      95	 1.97252	0.665846	        -2510.43	         2962.68	         452.257
      96	  1.9776	0.653167	         -2518.1	         2970.31	         452.207
      97	   1.983	0.639956	        -2526.24	         2978.41	         452.171
      98	 1.98812	0.627663	        -2534.01	         2986.09	         452.083
      99	 1.99201	0.618663	        -2539.94	         2991.92	         451.988
     100	 1.99368	0.615377	        -2542.48	         2994.44	         451.958
     101	 1.99276	 0.61873	        -2541.05	         2993.05	         451.999
     102	 1.98959	0.627872	        -2536.21	         2988.29	         452.087
     103	 1.98505	0.640703	        -2529.29	         2981.48	         452.195
     104	 1.98022	0.654596	        -2521.96	         2974.24	         452.281
     105	   1.976	0.667361	        -2515.59	          2967.9	         452.309
     106	 1.97272	 0.67808	        -2510.72	         2962.99	         452.278
     107	  1.9702	0.687166	        -2506.99	          2959.2	         452.214
     108	 1.96787	0.695794	        -2503.57	         2955.71	         452.147
     109	 1.96519	0.705192	        -2499.58	         2951.69	         452.108
     110	 1.96189	0.715891	        -2494.62	         2946.74	         452.125
     111	 1.95827	0.727117	        -2489.12	         2941.31	         452.197
     112	 1.95513	0.736901	        -2484.32	          2936.6	         452.278
     113	 1.95335	0.743074	        -2481.61	         2933.93	         452.321
     114	 1.95351	0.744273	        -2481.84	         2934.17	         452.334
     115	 1.95588	0.739944	        -2485.38	         2937.73	         452.344
     116	 1.96054	0.729941	        -2492.38	         2944.71	          452.33
     117	 1.96718	0.715009	        -2502.44	         2954.68	         452.239
     118	 1.97477	0.697697	        -2513.97	         2966.06	          452.09
     119	 1.98177	0.681806	        -2524.58	         2976.56	         451.978
     120	 1.98692	 0.67042	        -2532.34	         2984.29	         451.953
     121	 1.98975	0.664747	        -2536.56	         2988.53	         451.972
     122	 1.99023	 0.66485	        -2537.29	         2989.26	         451.967
     123	 1.98831	0.670886	        -2534.43	         2986.37	         451.938
     124	 1.98385	0.683122	        -2527.74	         2979.69	         451.943
     125	  1.9771	0.700875	        -2517.55	         2969.55	         452.004
     126	 1.96879	0.722155	        -2505.02	          2957.1	         452.076
     127	 1.95989	0.744551	        -2491.59	         2943.74	         452.143
     128	 1.95135	0.765637	         -2478.7	         2930.93	         452.235
     129	 1.94434	0.782589	        -2468.07	         2920.42	          452.35
     130	 1.94016	0.792318	         -2461.7	         2914.15	         452.452
     131	 1.93988	0.792334	        -2461.24	         2913.72	         452.478
     132	 1.94374	0.782137	        -2467.14	         2919.51	         452.378
     133	 1.95078	0.764208	        -2477.88	         2930.08	         452.192
     134	 1.95921	0.743072	         -2490.7	         2942.72	         452.021
     135	 1.96721	0.723223	        -2502.84	         2954.73	         451.892
     136	 1.97331	0.708314	        -2512.12	         2963.88	         451.755
     137	 1.97604	0.701851	        -2516.37	         2967.97	         451.599
     138	 1.97405	0.707042	        -2513.45	         2964.98	         451.527
     139	 1.96702	0.724597	        -2502.76	         2954.44	         451.681
     140	 1.95689	0.749936	        -2487.15	         2939.24	         452.087
     141	 1.94762	0.773382	        -2472.88	         2925.34	         452.459
     142	 1.94268	0.786391	        -2465.45	         2917.93	         452.479
     143	 1.94255	0.787833	        -2465.44	         2917.74	         452.298
     144	 1.94568	0.781462	        -2470.24	         2922.43	         452.193
     145	 1.95073	0.770358	        -2477.82	            2930	         452.184
     146	 1.95708	0.755956	        -2487.37	         2939.53	         452.155
     147	 1.96405	0.740012	        -2497.91	         2949.98	         452.071
     148	 1.97062	 0.72519	        -2507.83	         2959.84	         452.008
     149	 1.97592	0.713722	         -2515.8	         2967.78	         451.983
     150	  1.9794	0.706963	        -2521.06	            2973	         451.943
     151	 1.98054	0.706204	        -2522.81	         2974.72	           451.9
     152	 1.97897	0.712384	        -2520.44	         2972.36	          451.92
     153	 1.97494	0.724845	        -2514.31	         2966.32	         452.013
     154	 1.96943	0.741162	        -2505.94	         2958.05	         452.118
     155	 1.96359	0.758395	        -2497.13	          2949.3	         452.169
     156	 1.95821	0.774526	        -2489.05	         2941.22	         452.169
     157	 1.95366	  0.7885	        -2482.21	          2934.4	         452.191
     158	 1.95047	0.798982	        -2477.35	         2929.61	         452.257
     159	 1.94931	0.804128	         -2475.6	         2927.88	         452.279
     160	 1.95042	0.803304	        -2477.31	         2929.53	         452.218
     161	 1.95326	0.797773	        -2481.64	         2933.79	         452.158
     162	  1.9572	0.789091	        -2487.56	          2939.7	         452.148
     163	 1.96193	0.778008	        -2494.65	          2946.8	         452.147
     164	 1.96723	0.765086	        -2502.64	         2954.75	         452.109
     165	 1.97262	0.751573	        -2510.79	         2962.84	         452.044
     166	 1.97743	0.739155	        -2518.04	         2970.05	         452.009
     167	 1.98126	0.728851	        -2523.76	         2975.79	         452.035
     168	 1.98425	0.720381	        -2528.18	         2980.28	         452.102
     169	 1.98691	0.712577	        -2532.11	         2984.27	         452.168
     170	 1.98976	0.704284	        -2536.34	         2988.54	         452.204
     171	 1.99302	0.695011	        -2541.23	         2993.43	         452.205
     172	 1.99661	0.685022	        -2546.63	         2998.83	         452.199
     173	 2.00044	0.674711	        -2552.33	         3004.57	         452.243
     174	 2.00481	0.663528	        -2558.78	         3011.12	         452.339
     175	  2.0103	0.650135	        -2566.99	         3019.36	          452.37
     176	 2.01693	0.634646	        -2577.02	          3029.3	         452.279
     177	 2.02368	0.619645	        -2587.25	         3039.43	         452.176
     178	 2.02939	0.608064	        -2595.85	         3047.99	          452.14
     179	 2.03341	0.601461	        -2601.88	         3054.02	         452.136
     180	 2.03548	0.600464	        -2605.02	         3057.13	         452.107
     181	 2.03527	0.605843	        -2604.78	         3056.81	         452.038
     182	 2.03227	0.618734	        -2600.35	         3052.32	         451.974
     183	 2.02621	0.639722	        -2591.22	         3043.22	         451.993
     184	 2.01767	0.667264	        -2578.28	         3030.42	         452.137
     185	 2.00833	 0.69721	        -2564.12	          3016.4	          452.28
     186	 1.99969	0.725598	        -2551.19	         3003.44	          452.25
     187	 1.99188	0.751978	         -2539.6	         2991.73	         452.131
     188	 1.98417	0.777948	        -2528.08	         2980.16	         452.081
     189	 1.97629	0.803924	        -2516.22	         2968.35	         452.134
     190	 1.96895	 0.82816	        -2505.07	         2957.33	         452.261
     191	 1.96342	0.847499	        -2496.69	         2949.04	         452.349
     192	 1.96051	0.859888	        -2492.41	         2944.68	         452.268
     193	 1.95955	0.866854	        -2491.16	         2943.24	         452.075
     194	 1.95887	0.872337	        -2490.26	         2942.21	         451.948
     195	 1.95725	 0.87908	        -2487.82	         2939.79	         451.964
     196	 1.95474	0.886868	        -2483.96	         2936.02	         452.056
     197	  1.9521	0.893752	        -2479.93	         2932.06	         452.127
     198	 1.95007	0.897995	        -2476.85	         2929.02	          452.17
     199	  1.9492	0.898388	        -2475.47	          2927.7	         452.237
     200	 1.95014	0.893449	        -2476.79	         2929.12	         452.326
     201	  1.9536	0.881601	        -2481.95	          2934.3	         452.355
     202	 1.95961	0.862822	        -2491.07	         2943.33	          452.26
     203	  1.9671	0.839852	        -2502.48	         2954.56	         452.082
     204	 1.97422	0.817209	        -2513.31	         2965.23	         451.922
     205	 1.97929	0.798929	        -2520.99	         2972.85	          451.86
     206	 1.98165	0.786726	        -2524.46	         2976.38	         451.919
     207	 1.98179	0.779418	        -2524.53	         2976.59	         452.057
     208	 1.98103	0.773909	        -2523.26	         2975.45	          452.19
     209	 1.98072	0.767004	        -2522.71	         2974.98	         452.272
     210	 1.98177	0.756561	        -2524.25	         2976.56	         452.314
     211	 1.98465	0.741507	        -2528.55	         2980.88	         452.323
     212	 1.98939	0.721745	         -2535.7	         2987.99	          452.29
     213	 1.99561	0.698261	        -2545.09	         2997.33	         452.234
     214	 2.00269	0.672653	        -2555.75	         3007.94	         452.197
     215	 2.01009	0.646301	        -2566.86	         3019.04	         452.185
     216	 2.01745	0.620171	        -2577.91	         3030.08	         452.171
     217	 2.02438	0.595279	        -2588.34	         3040.48	         452.136
     218	 2.03034	0.573065	        -2597.32	         3049.41	         452.094
     219	 2.03476	0.555002	        -2603.96	         3056.05	         452.094
     220	 2.03746	0.541681	        -2607.97	          3060.1	         452.137
     221	 2.03863	0.532756	        -2609.67	         3061.85	         452.176
     222	 2.03847	0.527798	        -2609.42	         3061.61	         452.192
     223	 2.03706	 0.52672	        -2607.29	         3059.49	           452.2
     224	 2.03442	0.529499	        -2603.32	         3055.54	         452.214
     225	 2.03065	0.535891	        -2597.65	         3049.88	         452.229
     226	 2.02587	0.545541	        -2590.48	         3042.71	         452.232
     227	 2.02015	0.558183	        -2581.91	         3034.14	         452.229
     228	 2.01357	0.573548	        -2572.02	         3024.26	         452.242
     229	 2.00636	0.590945	        -2561.16	         3013.45	         452.286
     230	 1.99906	0.608965	        -2550.15	          3002.5	          452.35
     231	 1.99238	0.625786	        -2540.09	         2992.48	         452.391
     232	 1.98684	0.640057	        -2531.79	         2984.17	         452.378
     233	 1.98248	0.651558	         -2525.3	         2977.62	         452.319
     234	 1.97893	0.661075	        -2520.05	         2972.31	         452.251
     235	 1.97577	0.669599	        -2515.35	         2967.57	         452.221
     236	  1.9729	0.677378	        -2511.01	         2963.25	         452.244
     237	 1.97063	0.683618	        -2507.57	         2959.85	         452.279
     238	 1.96937	0.687344	         -2505.7	         2957.96	         452.263
     239	 1.96908	0.688661	        -2505.33	         2957.52	          452.19
     240	 1.96921	0.688861	         -2505.6	         2957.72	         452.117
     241	 1.96918	0.689318	        -2505.58	         2957.67	         452.094
     242	 1.96879	0.690446	        -2504.98	          2957.1	         452.119
     243	 1.96827	0.691693	        -2504.17	         2956.31	         452.149
     244	  1.9679	0.692345	         -2503.6	         2955.76	         452.164
     245	 1.96792	0.691907	         -2503.6	         2955.79	         452.195
     246	 1.96867	0.689661	        -2504.67	         2956.92	         452.253
     247	 1.97063	0.684557	        -2507.57	         2959.85	         452.277
     248	 1.97384	0.676507	        -2512.47	         2964.67	         452.196
     249	 1.97743	0.667651	        -2518.01	         2970.06	         452.051
     250	 1.97997	0.661462	        -2521.93	         2973.86	         451.936
     251	 1.98026	0.660689	         -2522.4	          2974.3	         451.897
     252	 1.97791	 0.66619	        -2518.84	         2970.77	          451.93
     253	  1.9733	0.676932	        -2511.86	         2963.87	         452.005
     254	 1.96736	0.690643	        -2502.86	         2954.95	         452.099
     255	 1.96129	0.704402	        -2493.63	         2945.85	         452.218
     256	 1.95654	0.714757	        -2486.36	         2938.72	         452.361
     257	 1.95462	0.718153	        -2483.37	         2935.83	         452.459
     258	  1.9564	0.712492	        -2486.08	         2938.51	          452.44
     259	  1.9616	0.698633	        -2493.99	         2946.32	         452.323
     260	 1.96887	0.679942	        -2505.03	         2957.21	         452.178
     261	 1.97644	0.660679	        -2516.52	         2968.57	         452.051
     262	 1.98276	0.644698	        -2526.08	         2978.05	         451.975
     263	 1.98681	0.634523	        -2532.15	         2984.12	         451.968
     264	 1.98833	0.630821	        -2534.38	         2986.41	         452.026
     265	 1.98778	0.632566	        -2533.48	         2985.58	         452.108
     266	 1.98592	0.637916	        -2530.62	         2982.79	         452.169
     267	  1.9834	 0.64527	        -2526.81	            2979	         452.195
     268	 1.98058	0.653643	        -2522.57	         2974.78	         452.215
     269	  1.9778	0.662185	        -2518.36	         2970.61	         452.247
     270	  1.9754	0.669878	        -2514.74	         2967.01	         452.265
     271	 1.97365	0.675957	        -2512.12	         2964.38	         452.261
     272	 1.97269	 0.68001	        -2510.67	         2962.94	         452.277
     273	 1.97284	0.681234	        -2510.84	         2963.17	         452.329
     274	 1.97467	0.678221	        -2513.55	         2965.91	         452.364
     275	 1.97858	0.670032	        -2519.42	         2971.77	         452.352
     276	 1.98451	0.656914	        -2528.36	         2980.67	         452.305
     277	 1.99185	0.640322	        -2539.51	         2991.69	         452.178
     278	 1.99924	0.623606	        -2550.77	         3002.76	         451.994
     279	 2.00486	0.611205	        -2559.29	         3011.19	           451.9
     280	  2.0077	0.605632	         -2563.5	         3015.46	         451.967
     281	 2.00822	0.605914	        -2564.12	         3016.24	         452.123
     282	 2.00771	0.609002	        -2563.24	         3015.47	         452.229
     283	 2.00708	0.612703	        -2562.34	         3014.53	         452.198
     284	 2.00614	0.617503	        -2561.04	         3013.12	         452.083
     285	   2.004	0.625487	        -2557.88	         3009.91	         452.024
     286	 2.00029	0.637503	        -2552.24	         3004.35	         452.106
     287	 1.99586	0.651496	        -2545.43	          2997.7	          452.27
     288	 1.99223	0.663785	        -2539.89	         2992.25	         452.366
     289	 1.99031	0.672171	        -2537.06	         2989.37	         452.307
     290	  1.9896	0.677795	        -2536.16	          2988.3	         452.142
     291	  1.9886	0.684154	        -2534.82	          2986.8	         451.982
     292	 1.98583	0.694673	        -2530.74	         2982.65	         451.908
     293	 1.98063	0.710799	        -2522.91	         2974.85	         451.938
     294	 1.97338	0.731523	        -2511.95	         2963.98	         452.028
     295	 1.96512	0.754266	        -2499.48	         2951.59	         452.108
     296	 1.95688	  0.7764	         -2487.1	         2939.23	         452.136
     297	 1.94935	0.796173	        -2475.79	         2927.94	         452.149
     298	 1.94307	0.812166	         -2466.3	         2918.51	         452.207
     299	 1.93891	0.822188	        -2459.95	         2912.28	         452.326
     300	 1.93815	0.823188	         -2458.7	         2911.13	         452.431
     301	 1.94164	0.813052	        -2463.98	         2916.36	         452.389
     302	  1.9488	0.793223	        -2474.89	          2927.1	         452.211
     303	 1.95773	0.768389	        -2488.46	          2940.5	         452.048
     304	 1.96646	0.743422	        -2501.62	         2953.59	         451.974
     305	 1.97373	0.721436	        -2512.52	          2964.5	         451.981
     306	 1.97912	0.703616	        -2520.56	         2972.59	         452.037
     307	 1.98279	0.689792	        -2525.99	         2978.09	         452.102
     308	 1.98508	0.679267	        -2529.38	         2981.53	         452.156
     309	 1.98638	0.671247	        -2531.27	         2983.48	         452.212
     310	 1.98715	0.664707	        -2532.36	         2984.63	         452.276
     311	 1.98795	0.658346	         -2533.5	         2985.83	         452.333
     312	 1.98927	0.651006	        -2535.45	         2987.81	          452.36
     313	 1.99133	0.642182	        -2538.56	         2990.91	         452.352
     314	 1.99402	0.632166	        -2542.63	         2994.94	         452.313
     315	 1.99692	0.621958	        -2547.04	         2999.29	          452.25
     316	  1.9994	0.613056	        -2550.82	         3003.01	         452.184
     317	 2.00084	0.606975	        -2553.03	         3005.16	         452.135
     318	  2.0008	0.604729	           -2553	         3005.11	         452.106
     319	 1.99911	0.606728	        -2550.48	         3002.57	          452.09
     320	 1.99584	 0.61277	        -2545.56	         2997.67	         452.117
     321	 1.99161	0.621464	        -2539.11	         2991.33	         452.217
     322	 1.98762	0.629928	        -2533.01	         2985.33	         452.322
     323	 1.98502	0.635326	         -2529.1	         2981.44	         452.343
     324	 1.98425	0.636705	        -2527.97	         2980.28	         452.316
     325	  1.9851	0.634559	        -2529.27	         2981.56	         452.289
     326	 1.98715	0.629849	        -2532.38	         2984.63	         452.249
     327	 1.98976	0.624076	        -2536.36	         2988.54	         452.187
     328	 1.99207	0.619266	         -2539.9	         2992.02	         452.115
     329	 1.99318	0.617588	        -2541.62	         2993.67	          452.05
     330	 1.99229	0.620829	        -2540.32	         2992.34	         452.016
     331	 1.98908	0.629713	        -2535.48	         2987.53	          452.05
     332	 1.98403	 0.64312	        -2527.77	         2979.95	         452.184
     333	  1.9786	0.657569	        -2519.42	         2971.81	         452.389
     334	 1.97478	0.668273	        -2513.57	         2966.07	           452.5
     335	 1.97358	0.672667	        -2511.87	         2964.28	         452.409
     336	 1.97432	0.672448	        -2513.13	         2965.38	         452.253
     337	 1.97549	0.671028	           -2515	         2967.15	         452.146
     338	 1.97596	0.670974	        -2515.75	         2967.85	         452.097
     339	  1.9752	0.673433	        -2514.59	         2966.71	          452.12
     340	 1.97342	0.677893	        -2511.82	         2964.03	         452.212
     341	 1.97147	0.682319	        -2508.79	         2961.12	         452.325
     342	 1.97042	0.684236	        -2507.14	         2959.54	         452.399
     343	 1.97096	0.682019	        -2507.94	         2960.35	          452.41
     344	 1.97318	0.675514	        -2511.32	         2963.68	         452.364
     345	  1.9766	0.665902	        -2516.52	          2968.8	         452.289
     346	  1.9804	0.655129	         -2522.3	          2974.5	         452.206
     347	 1.98368	0.645326	         -2527.3	         2979.42	         452.121
     348	 1.98556	 0.63855	        -2530.21	         2982.25	         452.043
     349	 1.98537	0.636444	        -2529.95	         2981.96	         452.011
     350	 1.98294	0.639378	        -2526.26	         2978.32	          452.06
     351	 1.97891	 0.64582	        -2520.11	         2972.28	         452.168
     352	 1.97453	0.652819	         -2513.4	          2965.7	         452.296
     353	 1.97127	0.656903	        -2508.37	         2960.82	         452.446
     354	 1.97072	0.654437	        -2507.43	         2959.98	         452.555
     355	  1.9737	0.643334	        -2511.99	         2964.46	         452.473
     356	 1.97939	0.625734	        -2520.71	         2972.99	         452.277
     357	 1.98583	0.606463	         -2530.5	         2982.65	         452.152
     358	 1.99148	0.589257	        -2539.02	         2991.13	         452.113
     359	 1.99561	0.575917	        -2545.21	         2997.32	         452.107
     360	 1.99796	0.567131	        -2548.73	         3000.85	          452.12
     361	  1.9986	0.562833	        -2549.64	          3001.8	         452.165
     362	 1.99795	0.562058	        -2548.59	         3000.84	         452.247
     363	 1.99682	 0.56295	        -2546.79	         2999.14	         452.343
     364	 1.99605	0.563464	         -2545.6	         2997.99	         452.388
     365	 1.99602	0.562705	        -2545.59	         2997.94	         452.353
     366	 1.99639	0.561506	         -2546.2	         2998.49	         452.293
     367	 1.99657	0.561318	        -2546.48	         2998.76	         452.272
     368	 1.99625	0.562849	        -2545.99	         2998.28	         452.291
     369	 1.99551	 0.56592	        -2544.87	         2997.18	         452.306
     370	 1.99445	0.570296	         -2543.3	         2995.58	         452.277
     371	 1.99281	0.576498	        -2540.91	         2993.13	         452.218
     372	 1.99019	0.585497	           -2537	         2989.19	         452.191
     373	 1.98646	0.597523	        -2531.37	         2983.59	         452.225
     374	 1.98203	0.611483	        -2524.67	         2976.96	          452.29
     375	 1.97765	0.625555	        -2518.04	         2970.38	         452.341
     376	 1.97394	0.638162	        -2512.47	         2964.82	         452.349
     377	 1.97115	0.648635	        -2508.33	         2960.63	         452.302
     378	 1.96899	0.657498	        -2505.19	          2957.4	         452.212
     379	 1.96685	 0.66612	        -2502.05	         2954.18	         452.132
     380	 1.96421	0.675582	        -2498.11	         2950.23	         452.116
     381	 1.96124	0.685465	        -2493.57	         2945.77	         452.206
     382	 1.95915	0.693024	        -2490.23	         2942.64	         452.415
     383	 1.95992	0.693579	        -2491.27	         2943.78	         452.514
     384	 1.96416	 0.68546	        -2497.87	         2950.15	         452.276
     385	 1.96981	0.673886	         -2506.6	         2958.62	         452.028
     386	 1.97435	0.664918	        -2513.44	         2965.44	         452.002
     387	   1.977	0.660315	        -2517.31	         2969.41	         452.094
     388	 1.97825	0.658906	         -2519.1	         2971.28	         452.181
     389	 1.97881	 0.65911	         -2519.9	         2972.12	         452.218
     390	 1.97909	0.660047	        -2520.32	         2972.54	          452.22
     391	 1.97925	0.661421	        -2520.56	         2972.78	         452.219
     392	 1.97942	0.662957	        -2520.81	         2973.04	         452.228
     393	 1.97982	0.664212	        -2521.41	         2973.64	         452.231
     394	 1.98057	0.664919	        -2522.56	         2974.76	         452.208
     395	 1.98154	 0.66544	        -2524.06	         2976.22	         452.154
     396	 1.98227	0.666846	        -2525.24	         2977.32	         452.079
     397	 1.98211	0.670667	        -2525.07	         2977.08	         452.008
     398	 1.98049	0.678226	        -2522.64	         2974.64	         451.994
     399	 1.97737	0.689571	        -2517.89	         2969.96	         452.066
     400	 1.97347	0.702943	        -2511.94	         2964.11	         452.175
     401	 1.96976	0.715907	        -2506.34	         2958.55	          452.21
     402	 1.96655	0.727601	        -2501.61	         2953.73	         452.119
     403	 1.96311	0.739637	        -2496.58	         2948.57	         451.994
     404	 1.95848	0.754192	        -2489.66	         2941.64	          451.98
     405	  1.9528	 0.77095	        -2480.96	         2933.11	         452.148
     406	 1.94771	0.785848	        -2473.12	         2925.48	         452.354
     407	 1.94498	0.794431	        -2469.07	         2921.38	         452.319
     408	  1.9444	0.797154	        -2468.37	         2920.51	         452.141
     409	 1.94448	0.797599	        -2468.54	         2920.63	         452.097
     410	 1.94462	0.797036	        -2468.64	         2920.84	         452.196
     411	 1.94551	0.793702	        -2469.86	         2922.18	         452.322
     412	 1.94827	0.785024	        -2473.92	         2926.32	           452.4
     413	 1.95361	0.769422	        -2481.93	         2934.33	         452.401
     414	 1.96145	0.747205	        -2493.79	         2946.09	           452.3
     415	 1.97072	0.721051	        -2507.85	         2959.98	         452.135
     416	 1.97976	0.695074	        -2521.53	         2973.55	         452.021
     417	 1.98733	0.672462	        -2532.89	         2984.91	         452.012
     418	 1.99311	0.654165	         -2541.5	         2993.57	         452.072
     419	 1.99745	0.639557	        -2547.95	         3000.08	         452.129
     420	 2.00071	0.627906	        -2552.85	         3004.97	         452.126
     421	 2.00279	0.619613	        -2556.02	         3008.09	         452.067
     422	 2.00313	0.616064	        -2556.57	         3008.61	         452.032
     423	 2.00144	0.618046	        -2553.99	         3006.06	         452.076
     424	 1.99808	0.624606	        -2548.87	         3001.04	         452.168
     425	 1.99392	0.633637	        -2542.56	         2994.79	         452.235
     426	 1.98968	0.643321	        -2536.17	         2988.42	         452.252
     427	 1.98568	0.652735	        -2530.17	         2982.42	         452.247
     428	 1.98206	0.661393	        -2524.74	         2976.99	          452.25
     429	 1.97904	0.668611	        -2520.19	         2972.47	         452.284
     430	 1.97715	0.673066	        -2517.28	         2969.64	         452.358
     431	 1.97717	0.672822	        -2517.25	         2969.66	         452.414
     432	 1.97956	 0.66668	        -2520.89	         2973.25	         452.365
     433	 1.98381	0.655891	        -2527.39	         2979.62	         452.227
     434	 1.98853	0.643794	         -2534.6	          2986.7	           452.1
     435	 1.99233	0.633733	        -2540.37	         2992.41	         452.037
     436	 1.99438	0.627743	        -2543.45	         2995.48	         452.034
     437	 1.99448	0.626408	        -2543.55	         2995.63	         452.075
     438	 1.99289	0.629175	        -2541.13	         2993.25	          452.12
     439	 1.98996	0.635246	        -2536.73	         2988.85	         452.116
     440	 1.98572	 0.64453	        -2530.41	         2982.49	         452.082
     441	 1.98005	0.657298	        -2521.89	         2973.98	         452.088
     442	 1.97324	0.672772	         -2511.6	         2963.77	         452.174
     443	 1.96633	0.688412	         -2501.1	         2953.41	         452.305
     444	 1.96078	0.700646	        -2492.66	         2945.08	          452.42
     445	  1.9579	 0.70631	        -2488.29	         2940.76	          452.47
     446	 1.95836	0.703824	        -2489.01	         2941.45	         452.446
     447	 1.96201	0.693579	        -2494.57	         2946.92	         452.351
     448	 1.96784	 0.67793	        -2503.48	         2955.67	         452.193
     449	 1.97425	0.660833	        -2513.24	         2965.29	         452.048
     450	 1.97967	0.646176	        -2521.42	         2973.41	         451.991
     451	 1.98322	0.636088	        -2526.73	         2978.74	         452.013
     452	 1.98482	0.630887	        -2529.07	         2981.13	         452.067
     453	 1.98476	0.629922	        -2528.92	         2981.04	         452.123
     454	 1.98344	 0.63225	         -2526.9	         2979.08	         452.171
     455	 1.98132	0.636841	        -2523.66	         2975.88	         452.226
     456	 1.97889	0.642436	        -2519.96	         2972.25	         452.283
     457	 1.97669	0.647733	        -2516.64	         2968.94	         452.301
     458	 1.97488	0.652201	        -2513.97	         2966.23	          452.26
     459	 1.97318	0.656463	        -2511.49	         2963.68	         452.191
     460	  1.9711	0.661594	         -2508.4	         2960.55	         452.152
     461	 1.96852	0.667818	        -2504.48	         2956.69	         452.215
     462	 1.96632	0.673141	           -2501	         2953.38	          452.38
     463	 1.96612	0.673637	        -2500.59	         2953.09	         452.506
     464	 1.96912	0.666488	        -2505.13	         2957.59	         452.457
     465	 1.97488	0.652764	        -2513.97	         2966.23	         452.267
     466	 1.98159	0.636815	        -2524.24	          2976.3	         452.061
     467	 1.98724	0.623453	         -2532.8	         2984.77	         451.969
     468	 1.99087	0.615026	        -2538.17	         2990.21	         452.037
     469	 1.99295	0.610444	        -2541.17	         2993.33	         452.163
     470	 1.99455	0.607237	        -2543.51	         2995.73	         452.216
     471	 1.99625	0.604148	        -2546.07	         2998.29	         452.213
     472	 1.99816	0.601109	        -2548.93	         3001.15	         452.215
     473	 2.00023	 0.59821	        -2552.07	         3004.25	         452.182
     474	 2.00207	0.596372	        -2554.94	         3007.01	         452.073
     475	  2.0027	 0.59793	           -2556	         3007.96	         451.966
     476	 2.00122	0.605051	        -2553.78	         3005.73	         451.948
     477	 1.99754	0.617829	        -2548.19	         3000.21	         452.029
     478	 1.99259	0.633994	        -2540.63	          2992.8	         452.168
     479	 1.98791	0.649854	        -2533.46	         2985.77	         452.306
     480	 1.98496	0.661825	        -2528.99	         2981.35	         452.367
     481	 1.98444	0.668214	        -2528.25	         2980.56	         452.312
     482	 1.98588	0.670079	        -2530.53	         2982.72	         452.192
     483	  1.9881	0.670228	        -2533.98	         2986.06	         452.075
     484	 1.98982	0.671664	        -2536.66	         2988.64	         451.984
     485	 1.99001	0.676803	        -2536.99	         2988.92	          451.93
     486	 1.98809	0.686999	         -2534.1	         2986.04	          451.94
     487	 1.98418	0.701921	        -2528.15	         2980.18	         452.026
     488	 1.97919	0.719378	        -2520.53	         2972.69	         452.157
     489	 1.97448	0.736047	        -2513.35	         2965.63	         452.281
     490	 1.97139	0.748718	        -2508.63	         2960.99	         452.359
     491	  1.9708	0.755271	        -2507.73	          2960.1	         452.375
     492	 1.97289	0.755195	        -2510.93	         2963.25	         452.313
     493	 1.97707	 0.74991	        -2517.32	         2969.52	         452.194
     494	 1.98216	0.742237	        -2525.06	         2977.15	          452.09
     495	 1.98705	 0.73484	        -2532.44	         2984.49	         452.053
     496	 1.99123	0.729037	        -2538.69	         2990.76	          452.07
     497	 1.99464	0.725013	        -2543.79	         2995.87	         452.076
     498	 1.99716	0.723085	        -2547.63	         2999.65	         452.019
     499	 1.99822	0.724652	        -2549.32	         3001.24	         451.927
     500	 1.99705	0.731593	         -2547.6	         2999.48	         451.882
     501	 1.99336	0.744555	           -2542	         2993.94	         451.937
     502	 1.98782	0.761867	        -2533.57	         2985.63	         452.068
     503	 1.98184	0.780084	        -2524.47	         2976.67	         452.197
     504	 1.97686	0.795679	        -2516.93	          2969.2	         452.269
     505	 1.97382	0.806345	        -2512.34	         2964.63	         452.289
     506	 1.97305	0.811169	        -2511.22	         2963.48	         452.261
     507	 1.97432	0.810641	         -2513.2	         2965.39	         452.184
     508	 1.97688	0.806529	        -2517.13	         2969.23	         452.098
     509	 1.97982	0.801013	        -2521.62	         2973.64	         452.023
     510	 1.98232	 0.79606	        -2525.43	         2977.39	         451.966
     511	 1.98383	0.793057	        -2527.69	         2979.66	         451.966
     512	 1.98437	0.792026	        -2528.43	         2980.46	         452.037
     513	 1.98459	0.791457	        -2528.66	         2980.79	         452.123
     514	 1.98528	0.789464	        -2529.66	         2981.83	         452.177
     515	 1.98703	0.784802	        -2532.24	         2984.46	         452.219
     516	 1.99016	0.776756	        -2536.91	         2989.15	         452.243
     517	 1.99467	0.765327	        -2543.72	         2995.92	         452.199
     518	 1.99992	0.752096	         -2551.7	         3003.78	         452.088
     519	 2.00465	0.740057	        -2558.92	         3010.89	          451.97
     520	 2.00759	0.732292	         -2563.4	         3015.29	         451.894
     521	 2.00792	0.730726	         -2563.9	         3015.79	         451.894
     522	 2.00565	0.735372	        -2560.41	         3012.38	         451.973
     523	 2.00158	 0.74426	        -2554.18	         3006.28	         452.102
     524	 1.99708	0.754153	        -2547.28	         2999.53	          452.25
     525	 1.99368	0.761364	        -2542.03	         2994.42	         452.393
     526	 1.99277	0.762522	        -2540.59	         2993.07	          452.48
     527	 1.99514	0.755757	        -2544.14	         2996.62	         452.475
     528	 2.00062	0.741484	        -2552.45	         3004.84	         452.389
     529	 2.00823	0.722154	        -2563.99	         3016.25	         452.262
     530	 2.01651	 0.70134	        -2576.54	         3028.67	         452.137
     531	 2.02403	0.682645	        -2587.91	         3039.95	         452.041
     532	 2.02963	0.668979	        -2596.38	         3048.36	         451.979
     533	 2.03258	 0.66225	        -2600.81	         3052.77	          451.96
     534	 2.03264	0.663105	        -2600.88	         3052.87	         451.994
     535	 2.03017	0.670759	        -2597.11	         3049.17	         452.061
     536	 2.02589	0.683468	        -2590.62	         3042.74	         452.117
     537	 2.02048	0.699455	        -2582.49	         3034.62	         452.136
     538	  2.0144	0.717454	        -2573.37	         3025.51	         452.141
     539	 2.00805	0.736343	        -2563.81	         3015.99	         452.173
     540	 2.00208	0.754357	        -2554.79	         3007.03	         452.244
     541	 1.99743	0.769045	        -2547.75	         3000.05	         452.297
     542	 1.99483	0.778442	        -2543.85	         2996.15	         452.294
     543	 1.99451	 0.78193	        -2543.39	         2995.67	         452.276
     544	  1.9964	0.779621	        -2546.25	         2998.52	         452.263
     545	 2.00025	0.772075	        -2552.08	         3004.28	           452.2
     546	 2.00523	0.761186	        -2559.68	         3011.75	         452.078
     547	 2.01002	0.750198	        -2566.98	         3018.94	         451.959
     548	 2.01327	0.742312	        -2571.92	         3023.81	         451.891
     549	 2.01418	0.739447	        -2573.28	         3025.17	         451.896
     550	 2.01272	0.741629	        -2571.01	         3022.99	         451.984
     551	 2.00975	0.746826	         -2566.4	         3018.54	         452.141
     552	 2.00678	0.751397	        -2561.77	         3014.08	         452.313
     553	 2.00543	0.751444	        -2559.63	         3012.05	         452.422
     554	 2.00671	0.744559	        -2561.54	         3013.97	         452.428
     555	 2.01065	0.730732	        -2567.53	         3019.89	         452.354
     556	 2.01649	0.711923	        -2576.39	         3028.64	         452.254
     557	 2.02316	0.690849	        -2586.46	         3038.64	         452.179
     558	 2.02978	0.669781	        -2596.43	         3048.58	         452.146
     559	 2.03586	0.650118	        -2605.58	          3057.7	         452.122
     560	   2.041	0.632944	        -2613.34	         3065.41	          452.07
     561	  2.0447	0.619611	        -2618.94	         3070.96	         452.014
     562	 2.04651	0.611277	        -2621.67	         3073.68	         452.009
     563	 2.04652	0.607827	        -2621.61	         3073.69	         452.081
     564	 2.04554	0.607369	           -2620	         3072.22	         452.211
     565	 2.04487	0.606832	         -2618.9	         3071.22	         452.323
     566	 2.04556	0.603736	        -2619.94	         3072.25	         452.311
     567	 2.04746	0.598391	        -2622.94	          3075.1	         452.157
     568	 2.04914	0.594219	        -2625.64	         3077.62	         451.973
     569	 2.04883	0.595401	        -2625.27	         3077.15	         451.886
     570	  2.0456	 0.60409	        -2620.38	         3072.31	         451.933
     571	 2.03975	0.619449	        -2611.47	         3063.53	         452.061
     572	  2.0324	 0.63867	        -2600.32	         3052.51	         452.188
     573	 2.02478	0.658679	        -2588.81	         3041.08	         452.272
     574	 2.01781	0.677139	         -2578.3	         3030.62	          452.32
     575	 2.01206	0.692489	        -2569.66	            3022	         452.347
     576	 2.00792	0.703704	        -2563.42	         3015.79	         452.365
     577	 2.00565	0.710078	           -2560	         3012.39	         452.387
     578	 2.00552	0.711039	        -2559.79	         3012.18	         452.397
     579	 2.00754	0.706554	        -2562.88	         3015.23	         452.346
     580	 2.01118	 0.69806	        -2568.44	         3020.67	         452.231
     581	 2.01525	0.688451	        -2574.68	         3026.79	         452.109
     582	 2.01851	0.680849	        -2579.64	         3031.68	         452.033
     583	 2.02012	0.677331	        -2582.05	         3034.09	         452.036
     584	    2.02	0.678171	         -2581.8	         3033.91	         452.108
     585	 2.01871	0.682038	        -2579.79	         3031.98	          452.19
     586	 2.01698	0.687184	        -2577.15	         3029.38	         452.233
     587	 2.01526	0.692459	        -2574.56	          3026.8	         452.241
     588	 2.01373	0.697343	        -2572.26	          3024.5	         452.243
     589	  2.0125	 0.70143	         -2570.4	         3022.66	         452.258
     590	 2.01179	0.704096	        -2569.31	         3021.59	         452.285
     591	 2.01187	0.704578	         -2569.4	         3021.71	         452.311
     592	 2.01297	0.702289	        -2571.04	         3023.36	         452.328
     593	 2.01518	0.697017	        -2574.34	         3026.68	         452.337
     594	 2.01844	0.688925	        -2579.24	         3031.56	         452.328
     595	 2.02247	0.678715	        -2585.33	         3037.62	         452.285
     596	 2.02671	0.667843	        -2591.77	         3043.97	         452.204
     597	 2.03023	0.658517	        -2597.17	         3049.26	         452.092
     598	 2.03193	0.653434	        -2599.83	          3051.8	         451.972
     599	 2.03076	0.655074	        -2598.14	         3050.05	         451.907
     600	 2.02637	0.664314	        -2591.48	         3043.46	         451.974
     601	 2.01974	0.678872	        -2581.32	         3033.51	         452.193
     602	 2.01319	0.693259	        -2571.26	         3023.69	         452.432
     603	 2.00908	0.701807	        -2565.04	         3017.52	         452.487
     604	 2.00809	0.702913	        -2563.71	         3016.04	         452.337
     605	 2.00901	0.699587	        -2565.29	         3017.43	         452.143
     606	 2.00996	 0.69631	        -2566.85	         3018.85	         451.998
     607	  2.0094	0.696727	        -2566.09	         3018.01	         451.924
     608	 2.00655	0.702763	        -2561.78	         3013.73	         451.948
     609	 2.00162	0.713963	        -2554.28	         3006.34	         452.061
     610	 1.99573	 0.72771	        -2545.31	         2997.51	           452.2
     611	  1.9903	0.740632	        -2537.06	         2989.35	         452.289
     612	 1.98634	0.750271	        -2531.12	         2983.42	         452.303
     613	 1.98421	0.755789	        -2527.95	         2980.22	         452.266
     614	 1.98365	0.757681	         -2527.2	         2979.39	         452.184
     615	 1.98391	 0.75763	        -2527.72	         2979.78	         452.062
     616	  1.9839	0.758151	        -2527.79	         2979.75	         451.965
     617	 1.98278	0.761157	        -2526.11	         2978.07	         451.966
     618	 1.98065	 0.76637	        -2522.81	         2974.89	         452.079
     619	 1.97868	 0.77104	        -2519.69	         2971.93	         452.242
     620	 1.97845	0.771402	        -2519.24	         2971.58	         452.339
     621	 1.98087	0.765219	        -2522.93	         2975.22	         452.292
     622	 1.98553	  0.7535	        -2530.08	          2982.2	         452.122
     623	 1.99078	0.740072	        -2538.16	         2990.08	         451.925
     624	 1.99471	 0.72947	        -2544.16	         2995.97	         451.807
     625	  1.9961	0.724527	        -2546.23	         2998.05	         451.824
     626	 1.99502	0.725047	        -2544.48	         2996.45	         451.963
     627	 1.99277	0.728035	         -2540.9	         2993.06	         452.155
     628	 1.99108	0.729311	        -2538.24	         2990.53	         452.293
     629	 1.99122	0.725902	        -2538.44	         2990.73	         452.296
     630	  1.9932	0.717739	        -2541.52	         2993.71	         452.193
     631	 1.99609	 0.70714	        -2545.95	         2998.04	         452.088
     632	 1.99885	0.696603	        -2550.12	         3002.18	         452.061
     633	 2.00113	0.687067	        -2553.49	          3005.6	         452.114
     634	 2.00335	0.677742	        -2556.72	         3008.93	         452.209
     635	 2.00631	0.666952	        -2561.09	         3013.37	         452.278
     636	 2.01042	0.653827	        -2567.33	         3019.54	          452.21
     637	 2.01487	0.640458	        -2574.18	         3026.21	         452.031
     638	 2.01787	0.631206	        -2578.82	         3030.71	         451.894
     639	 2.01796	0.629526	        -2578.99	         3030.84	          451.85
     640	 2.01463	0.636495	        -2573.97	         3025.85	         451.876
     641	 2.00837	0.650945	        -2564.46	         3016.46	         451.998
     642	  2.0008	 0.66909	        -2552.86	          3005.1	         452.241
     643	 1.99441	0.684806	        -2543.13	         2995.52	         452.392
     644	 1.99065	0.694342	        -2537.63	         2989.89	          452.26
     645	 1.98871	0.699749	        -2534.86	         2986.98	         452.123
     646	 1.98735	0.703916	        -2532.79	         2984.93	         452.138
     647	 1.98642	   0.707	        -2531.35	         2983.54	         452.196
     648	 1.98633	0.708043	         -2531.2	         2983.41	         452.205
     649	 1.98713	0.706983	        -2532.47	          2984.6	         452.129
     650	 1.98814	0.705451	        -2534.12	         2986.11	         451.994
     651	 1.98827	0.706128	         -2534.4	         2986.31	         451.905
     652	 1.98686	 0.71062	        -2532.27	          2984.2	         451.933
     653	 1.98432	0.718024	        -2528.34	         2980.38	         452.042
     654	 1.98182	0.725549	        -2524.46	         2976.64	         452.186
     655	 1.98088	0.729724	        -2522.92	         2975.23	         452.313
     656	 1.98262	0.727844	        -2525.52	         2977.84	         452.321
     657	 1.98694	0.720091	        -2532.13	         2984.32	         452.184
     658	 1.99239	0.709942	        -2540.47	         2992.49	         452.021
     659	 1.99713	 0.70169	        -2547.68	         2999.61	         451.926
     660	  1.9999	0.698247	        -2551.87	         3003.77	         451.896
     661	 2.00015	0.700846	        -2552.23	         3004.14	         451.908
     662	 1.99792	0.709341	        -2548.82	         3000.78	         451.967
     663	 1.99383	  0.7222	        -2542.58	         2994.65	         452.069
     664	 1.98895	0.736781	        -2535.17	         2987.33	         452.155
     665	 1.98422	 0.75067	        -2528.07	         2980.23	          452.16
     666	 1.97996	0.762971	        -2521.72	         2973.85	         452.133
     667	 1.97629	0.773393	        -2516.15	         2968.34	         452.182
     668	 1.97387	0.780269	         -2512.4	         2964.71	         452.308
     669	 1.97388	0.780745	        -2512.36	         2964.73	         452.366
     670	 1.97678	0.773717	        -2516.83	         2969.08	          452.25
     671	 1.98153	0.761866	        -2524.12	          2976.2	          452.08
     672	 1.98647	0.749309	         -2531.6	         2983.61	         452.008
     673	 1.99064	0.738462	        -2537.85	         2989.87	         452.022
     674	 1.99386	0.729893	        -2542.66	          2994.7	         452.043
     675	 1.99611	0.723775	        -2546.05	         2998.07	         452.024
     676	 1.99711	0.720836	         -2547.6	         2999.57	         451.971
     677	 1.99636	0.722237	        -2546.52	         2998.44	         451.924
     678	 1.99354	0.728665	        -2542.27	         2994.21	         451.947
     679	 1.98909	0.739015	        -2535.47	         2987.55	         452.079
     680	 1.98443	0.749827	        -2528.31	         2980.55	         452.237
     681	  1.9811	0.757196	        -2523.29	         2975.55	         452.265
     682	 1.97959	0.759844	         -2521.1	         2973.29	         452.186
     683	 1.97952	0.758703	        -2521.02	         2973.19	         452.177
     684	 1.98097	0.753651	        -2523.09	         2975.36	         452.276
     685	 1.98466	0.742883	         -2528.6	         2980.89	         452.294
     686	  1.9905	0.726605	        -2537.55	         2989.66	         452.102
     687	 1.99671	0.709309	        -2547.08	         2998.97	         451.886
     688	 2.00114	0.696245	        -2553.79	         3005.61	         451.822
     689	 2.00291	 0.68954	        -2556.36	         3008.27	         451.911
     690	 2.00264	0.687783	        -2555.79	         3007.87	         452.075
     691	 2.00175	 0.68767	        -2554.32	         3006.54	         452.224
     692	 2.00161	0.686028	        -2554.01	         3006.32	         452.302
     693	 2.00289	0.681234	        -2555.94	         3008.25	         452.303
     694	 2.00555	0.673475	        -2559.97	         3012.23	         452.256
     695	 2.00896	0.664211	        -2565.16	         3017.35	         452.188
     696	 2.01229	0.655447	        -2570.22	         3022.35	         452.127
     697	 2.01475	 0.64908	        -2573.96	         3026.03	         452.075
     698	 2.01566	0.646661	        -2575.37	          3027.4	         452.027
     699	 2.01453	0.649306	        -2573.69	          3025.7	         452.007
     700	 2.01128	0.657098	        -2568.76	         3020.83	         452.067
     701	  2.0067	0.668099	        -2561.73	         3013.96	         452.231
     702	 2.00254	0.678079	        -2555.27	         3007.71	         452.439
     703	 2.00085	0.682016	        -2552.63	         3005.19	          452.56
     704	 2.00284	0.676988	        -2555.66	         3008.17	         452.509
     705	  2.0081	 0.66396	        -2563.71	         3016.06	         452.351
     706	 2.01511	0.646574	        -2574.37	         3026.57	         452.202
     707	 2.02226	0.628661	        -2585.19	          3037.3	         452.111
     708	 2.02846	0.612906	        -2594.52	          3046.6	         452.085
     709	 2.03328	0.600463	        -2601.71	         3053.84	         452.124
     710	 2.03693	0.591013	        -2607.12	          3059.3	         452.185
     711	 2.03983	0.583665	        -2611.45	         3063.65	         452.206
     712	  2.0421	0.578244	        -2614.89	         3067.07	         452.172
     713	 2.04341	0.575642	        -2616.91	         3069.03	         452.119
     714	 2.04325	0.577106	        -2616.69	         3068.78	         452.089
     715	 2.04135	0.583247	        -2613.83	         3065.94	         452.108
     716	 2.03796	0.593508	        -2608.68	         3060.84	         452.164
     717	 2.03368	0.606371	         -2602.2	         3054.43	         452.225
     718	 2.02923	0.620088	         -2595.5	         3047.76	         452.258
     719	 2.02507	0.633492	        -2589.27	         3041.51	         452.246
     720	 2.02122	0.646373	        -2583.53	         3035.73	         452.206
     721	 2.01748	0.659092	        -2577.93	         3030.13	         452.191
     722	 2.01389	0.671481	        -2572.49	         3024.74	         452.254
     723	 2.01112	0.681883	        -2568.22	         3020.58	         452.362
     724	 2.01007	0.687996	        -2566.63	         3019.02	         452.387
     725	  2.0109	0.689427	        -2567.97	         3020.27	         452.294
     726	 2.01274	0.688308	        -2570.81	         3023.02	         452.209
     727	 2.01461	0.686923	        -2573.65	         3025.83	         452.179
     728	 2.01597	0.686521	        -2575.71	         3027.86	          452.15
     729	  2.0164	0.688065	         -2576.4	         3028.51	          452.11
     730	 2.01553	0.692472	        -2575.12	         3027.21	         452.082
     731	 2.01315	0.700185	        -2571.56	         3023.63	         452.076
     732	 2.00934	0.710948	        -2565.81	         3017.91	         452.108
     733	 2.00462	0.723454	        -2558.63	         3010.83	         452.202
     734	 2.00007	0.735034	        -2551.68	         3004.01	          452.33
     735	 1.99705	0.742367	        -2547.06	         2999.48	         452.423
     736	 1.99654	0.743029	        -2546.29	         2998.71	          452.42
     737	 1.99858	 0.73682	        -2549.47	         3001.78	         452.313
     738	 2.00228	0.725917	        -2555.16	         3007.32	          452.16
     739	 2.00627	0.713563	        -2561.26	         3013.32	         452.052
     740	 2.00959	0.702158	        -2566.26	          3018.3	         452.039
     741	 2.01213	0.692099	        -2569.99	          3022.1	         452.106
     742	 2.01445	0.682143	         -2573.4	         3025.58	         452.182
     743	  2.0172	0.670907	         -2577.5	         3029.71	         452.211
     744	  2.0206	0.658069	        -2582.61	          3034.8	         452.194
     745	 2.02434	0.644458	        -2588.27	         3040.42	         452.149
     746	 2.02783	0.631615	        -2593.55	         3045.65	         452.098
     747	 2.03037	0.621251	         -2597.4	         3049.46	         452.064
     748	 2.03146	0.614603	        -2599.03	          3051.1	         452.065
     749	 2.03096	0.612025	        -2598.26	         3050.35	         452.092
     750	 2.02905	 0.61309	        -2595.37	         3047.49	         452.122
     751	 2.02605	0.617028	        -2590.84	         3042.98	         452.142
     752	  2.0223	 0.62301	        -2585.19	         3037.35	         452.162
     753	 2.01823	 0.63004	        -2579.06	         3031.25	         452.186
     754	 2.01433	0.636948	        -2573.21	         3025.41	           452.2
     755	 2.01104	0.642742	        -2568.26	         3020.47	          452.21
     756	 2.00872	 0.64659	        -2564.76	         3016.99	         452.229
     757	 2.00772	0.647703	        -2563.25	         3015.49	         452.239
     758	 2.00825	0.645639	        -2564.06	         3016.29	         452.233
     759	 2.01023	0.640641	        -2567.08	         3019.25	         452.164
     760	  2.0129	0.634479	        -2571.23	         3023.25	         452.023
     761	 2.01498	0.630318	        -2574.45	         3026.39	         451.933
     762	 2.01558	0.630367	        -2575.33	         3027.28	         451.946
     763	 2.01459	0.634793	        -2573.81	         3025.79	         451.974
     764	 2.01216	 0.64319	        -2570.17	         3022.15	         451.981
     765	  2.0084	0.655316	         -2564.5	         3016.51	         452.005
     766	 2.00357	0.670436	        -2557.21	         3009.27	         452.063
     767	 1.99827	0.687014	        -2549.18	         3001.32	         452.133
     768	 1.99319	0.703224	        -2541.52	         2993.69	         452.169
     769	  1.9887	0.717967	        -2534.81	         2986.96	         452.143
     770	 1.98466	0.731429	         -2528.8	         2980.91	         452.109
     771	 1.98087	0.744027	        -2523.08	         2975.22	         452.137
     772	 1.97752	0.755136	           -2518	         2970.19	          452.19
     773	 1.97502	0.763696	        -2514.24	         2966.44	         452.198
     774	 1.97344	 0.76951	        -2511.91	         2964.07	          452.16
     775	  1.9725	0.773235	        -2510.54	         2962.66	         452.127
     776	 1.97201	0.775394	        -2509.78	         2961.93	         452.144
     777	 1.97221	0.775463	        -2510.02	         2962.23	         452.208
     778	 1.97368	0.772097	        -2512.19	         2964.43	         452.243
     779	  1.9767	0.764713	        -2516.76	         2968.95	         452.194
     780	 1.98077	0.754556	        -2522.96	         2975.07	         452.108
     781	 1.98506	 0.74377	        -2529.43	          2981.5	         452.066
     782	 1.98903	0.733723	        -2535.36	         2987.46	         452.095
     783	 1.99275	0.724376	        -2540.88	         2993.04	          452.16
     784	  1.9966	 0.71497	         -2546.6	          2998.8	         452.205
     785	 2.00074	0.705205	        -2552.85	         3005.02	         452.178
     786	 2.00475	0.696253	        -2558.95	         3011.04	         452.086
     787	 2.00766	0.690542	         -2563.4	          3015.4	             452
     788	 2.00857	0.690295	        -2564.79	         3016.76	         451.969
     789	 2.00711	0.696424	        -2562.59	         3014.57	         451.981
     790	 2.00337	0.708677	        -2556.96	         3008.96	         451.996
     791	 1.99761	0.726353	        -2548.32	         3000.33	         452.004
     792	 1.99023	0.748421	        -2537.21	         2989.26	         452.048
     793	 1.98213	0.772662	         -2524.9	          2977.1	           452.2
     794	 1.97529	 0.79436	        -2514.39	         2966.85	         452.464
     795	 1.97231	0.807088	        -2509.83	         2962.38	         452.549
     796	 1.97395	0.808719	        -2512.55	         2964.83	         452.287
     797	 1.97806	 0.80442	        -2518.98	            2971	         452.018
     798	 1.98196	0.800338	        -2524.94	         2976.85	         451.913
     799	 1.98429	 0.79943	        -2528.44	         2980.34	           451.9
     800	  1.9847	 0.80229	        -2529.04	         2980.96	         451.917
     801	 1.98336	0.808406	        -2527.01	         2978.96	         451.945
     802	 1.98069	0.816675	        -2522.95	         2974.94	         451.993
     803	  1.9774	0.825314	        -2517.91	         2970.01	         452.101
     804	 1.97478	0.831262	         -2513.8	         2966.08	         452.276
     805	  1.9746	0.830327	        -2513.38	          2965.8	         452.426
     806	 1.97821	0.819308	         -2518.8	         2971.22	         452.427
     807	 1.98556	0.798478	        -2529.96	         2982.24	         452.282
     808	 1.99515	0.771551	        -2544.53	         2996.63	         452.099
     809	 2.00497	0.743474	        -2559.41	         3011.36	         451.955
     810	  2.0133	0.718516	        -2571.98	         3023.86	          451.88
     811	  2.0191	0.699369	        -2580.68	         3032.56	          451.88
     812	 2.02213	0.686834	        -2585.15	          3037.1	          451.95
     813	 2.02293	0.679906	        -2586.23	          3038.3	         452.073
     814	 2.02256	0.676264	        -2585.55	         3037.75	         452.201
     815	 2.02214	0.673433	        -2584.86	         3037.12	         452.259
     816	 2.02212	0.670411	        -2584.87	         3037.09	         452.213
     817	 2.02202	0.668398	        -2584.84	         3036.94	         452.105
     818	 2.02079	0.669888	        -2583.08	         3035.09	         452.009
     819	 2.01748	0.677044	        -2578.16	         3030.13	         451.978
     820	 2.01183	0.690415	        -2569.62	         3021.66	         452.034
     821	 2.00443	0.708475	         -2558.4	         3010.55	         452.156
     822	 1.99652	0.728129	         -2546.4	         2998.68	         452.283
     823	  1.9894	0.746089	        -2535.65	         2988.01	         452.356
     824	 1.98392	0.760199	        -2527.41	         2979.78	         452.369
     825	 1.98034	 0.76966	        -2522.06	         2974.42	         452.361
     826	 1.97866	0.774383	        -2519.55	         2971.89	         452.348
     827	 1.97871	0.774625	        -2519.67	         2971.98	         452.314
     828	 1.98014	0.771236	        -2521.87	         2974.12	         452.244
     829	 1.98224	 0.76587	        -2525.11	         2977.26	         452.151
     830	 1.98413	0.760653	        -2528.04	          2980.1	         452.064
     831	 1.98504	0.757475	        -2529.46	         2981.47	          452.01
     832	 1.98454	 0.75738	        -2528.72	         2980.72	         452.006
     833	  1.9828	0.760098	        -2526.03	         2978.11	         452.076
     834	 1.98067	0.763698	        -2522.71	         2974.92	         452.206
     835	  1.9795	0.765132	        -2520.84	         2973.15	         452.315
     836	 1.98034	0.761966	        -2522.08	         2974.42	         452.345
     837	 1.98347	0.753755	        -2526.83	         2979.11	         452.287
     838	 1.98819	0.742209	        -2534.04	          2986.2	         452.165
     839	  1.9932	0.730543	        -2541.68	         2993.71	         452.031
     840	 1.99702	 0.72227	        -2547.52	         2999.44	         451.922
     841	 1.99844	0.720229	        -2549.73	         3001.58	         451.849
     842	 1.99672	0.726123	        -2547.16	         2998.99	         451.825
     843	 1.99173	0.740127	        -2539.63	          2991.5	         451.873
     844	 1.98414	0.760487	        -2528.13	         2980.12	         451.993
     845	 1.97537	0.783668	        -2514.82	         2966.96	          452.14
     846	 1.96707	0.805421	        -2502.26	         2954.52	         452.257
     847	 1.96069	0.822117	        -2492.63	         2944.95	         452.318
     848	 1.95707	0.831475	        -2487.19	         2939.51	         452.325
     849	 1.95649	0.832639	        -2486.34	         2938.65	         452.302
     850	 1.95885	0.825734	        -2489.91	         2942.18	         452.273
     851	 1.96382	0.811466	        -2497.42	         2949.64	         452.226
     852	  1.9708	0.791294	        -2507.96	         2960.11	         452.155
     853	 1.97895	0.767396	        -2520.23	         2972.33	         452.107
     854	 1.98754	0.741717	        -2533.11	         2985.22	          452.11
     855	 1.99623	0.715349	        -2546.13	         2998.25	          452.12
     856	 2.00471	0.689289	        -2558.89	         3010.97	         452.074
     857	 2.01223	0.665578	        -2570.28	         3022.25	         451.971
     858	 2.01765	0.647221	        -2578.51	         3030.38	         451.874
     859	 2.01994	0.636847	        -2581.98	         3033.82	         451.841
     860	 2.01872	0.635457	        -2580.12	         3031.99	         451.874
     861	 2.01432	 0.64231	        -2573.45	         3025.38	         451.933
     862	 2.00743	0.655662	        -2563.06	         3015.06	         451.994
     863	 1.99898	0.673288	         -2550.3	         3002.38	         452.084
     864	 1.99022	0.692106	           -2537	         2989.23	          452.23
     865	 1.98282	0.707936	        -2525.77	         2978.13	         452.357
     866	 1.97816	0.717227	        -2518.79	         2971.15	         452.359
     867	 1.97654	0.719162	        -2516.43	         2968.72	         452.287
     868	 1.97749	0.714797	        -2517.89	         2970.15	         452.264
     869	  1.9807	0.704829	        -2522.69	         2974.96	         452.268
     870	 1.98579	 0.68999	        -2530.43	          2982.6	         452.169
     871	 1.99155	0.673249	        -2539.23	         2991.23	         451.994
     872	 1.99612	0.659108	        -2546.18	         2998.09	         451.905
     873	 1.99837	0.650327	        -2549.52	         3001.47	         451.943
     874	 1.99835	0.646777	        -2549.39	         3001.43	         452.039
     875	  1.9968	0.646675	        -2546.98	         2999.11	         452.129
     876	  1.9946	0.647977	        -2543.61	         2995.81	         452.196
     877	 1.99251	0.648878	        -2540.41	         2992.67	          452.26
     878	  1.9913	0.647595	        -2538.52	         2990.86	         452.341
     879	 1.99183	 0.64216	        -2539.24	         2991.66	         452.413
     880	 1.99476	 0.63109	        -2543.63	         2996.04	         452.418
     881	 2.00003	0.614642	        -2551.61	         3003.95	         452.332
     882	 2.00667	0.595274	        -2561.73	         3013.91	         452.186
     883	 2.01307	0.576957	        -2571.49	         3023.52	         452.028
     884	  2.0175	0.563909	        -2578.24	         3030.16	         451.919
     885	 2.01872	 0.55912	        -2580.09	         3031.99	         451.901
     886	 2.01644	0.563298	        -2576.59	         3028.57	         451.974
     887	 2.01131	0.574843	        -2568.77	         3020.87	         452.098
     888	 2.00457	 0.59068	        -2558.54	         3010.76	         452.222
     889	 1.99759	0.607413	        -2547.98	          3000.3	         452.315
     890	 1.99156	0.622136	        -2538.86	         2991.24	         452.383
     891	 1.98739	0.632535	        -2532.55	         2984.99	          452.44
     892	 1.98582	0.636817	        -2530.18	         2982.64	         452.457
     893	 1.98706	0.634413	        -2532.11	         2984.49	         452.381
     894	 1.99041	0.626984	        -2537.28	         2989.52	         452.234
     895	 1.99451	0.617853	        -2543.56	         2995.67	         452.114
     896	 1.99814	0.609977	        -2549.04	         3001.12	         452.074
     897	 2.00075	0.604708	        -2552.93	         3005.03	         452.099
     898	 2.00243	0.601875	        -2555.39	         3007.56	         452.171
     899	 2.00375	 0.60025	        -2557.29	         3009.53	         452.244
     900	 2.00522	0.598566	        -2559.48	         3011.74	         452.261
     901	 2.00697	0.596598	        -2562.12	         3014.37	         452.242
     902	 2.00882	0.594823	        -2564.89	         3017.14	          452.25
     903	 2.01074	0.593328	        -2567.73	         3020.01	         452.277
     904	 2.01279	0.591921	        -2570.82	         3023.09	         452.266
     905	 2.01474	0.591163	        -2573.81	         3026.02	         452.206
     906	 2.01596	 0.59256	         -2575.7	         3027.84	         452.138
     907	 2.01578	 0.59766	        -2575.47	         3027.58	         452.106
     908	 2.01392	0.607099	        -2572.66	         3024.78	          452.12
     909	 2.01056	0.620342	        -2567.59	         3019.75	         452.161
     910	 2.00622	0.636101	        -2561.03	         3013.23	         452.201
     911	 2.00144	0.652964	        -2553.84	         3006.07	         452.225
     912	 1.99665	0.669803	        -2546.66	         2998.89	         452.226
     913	 1.99205	 0.68604	        -2539.78	         2991.98	         452.201
     914	 1.98754	0.701724	        -2533.05	         2985.22	         452.167
     915	 1.98295	0.717179	        -2526.18	         2978.33	         452.149
     916	 1.97817	0.732484	        -2519.02	         2971.17	          452.15
     917	 1.97328	0.747325	        -2511.67	         2963.83	         452.161
     918	 1.96847	0.761118	        -2504.43	         2956.61	         452.184
     919	 1.96407	0.772951	        -2497.79	         2950.02	         452.233
     920	 1.96066	0.781396	         -2492.6	          2944.9	         452.303
     921	 1.95898	0.784659	        -2490.01	         2942.38	         452.367
     922	 1.95964	0.781262	        -2490.99	         2943.37	         452.388
     923	 1.96285	0.770833	        -2495.82	         2948.18	         452.357
     924	 1.96826	 0.75432	        -2503.99	         2956.29	         452.297
     925	 1.97521	0.733488	        -2514.49	         2966.72	         452.236
     926	 1.98297	0.710319	        -2526.18	         2978.36	         452.183
     927	 1.99086	0.686676	        -2538.06	          2990.2	         452.141
     928	 1.99831	0.664181	        -2549.27	         3001.37	         452.104
     929	 2.00479	0.644315	        -2559.04	         3011.09	         452.056
     930	 2.00969	0.628688	        -2566.46	         3018.45	         451.986
     931	 2.01232	0.619078	        -2570.46	         3022.39	         451.933
     932	 2.01227	0.616587	        -2570.35	         3022.32	         451.967
     933	 2.00999	0.620219	        -2566.79	         3018.89	         452.105
     934	 2.00686	0.626685	        -2561.94	         3014.19	         452.257
     935	 2.00438	0.632345	        -2558.17	         3010.48	         452.307
     936	 2.00315	0.635695	        -2556.41	         3008.63	          452.22
     937	 2.00258	0.638017	        -2555.68	         3007.78	           452.1
     938	 2.00191	0.641162	        -2554.66	         3006.77	         452.115
     939	 2.00135	0.644451	        -2553.73	         3005.93	         452.208
     940	 2.00153	0.646036	        -2554.08	         3006.21	         452.128
     941	 2.00189	0.647296	        -2554.73	         3006.75	         452.021
     942	  2.0016	0.650299	        -2554.22	         3006.31	         452.093
     943	 2.00096	0.654077	         -2553.2	         3005.35	          452.15
     944	 2.00023	 0.65786	        -2552.21	         3004.26	         452.052
     945	 1.99863	0.663662	        -2549.92	         3001.85	         451.923
     946	 1.99504	0.674078	         -2544.6	         2996.47	         451.863
     947	 1.98908	0.689984	        -2535.63	         2987.53	         451.903
     948	 1.98146	0.709759	        -2524.05	          2976.1	         452.056
     949	 1.97396	 0.72925	        -2512.58	         2964.85	         452.272
     950	 1.96877	0.743271	        -2504.68	         2957.06	         452.386
     951	 1.96697	0.749186	        -2502.08	         2954.36	         452.279
     952	 1.96764	 0.74922	         -2503.3	         2955.37	         452.073
     953	 1.96884	0.748014	        -2505.21	         2957.17	         451.959
     954	 1.96926	0.748596	        -2505.82	          2957.8	         451.984
     955	 1.96885	0.751036	        -2505.11	         2957.19	         452.081
     956	 1.96828	0.753724	        -2504.17	         2956.33	         452.152
     957	 1.96805	0.755421	        -2503.84	         2955.99	         452.145
     958	 1.96805	0.756385	         -2503.9	         2955.99	         452.088
     959	 1.96776	0.757807	        -2503.49	         2955.55	         452.058
     960	 1.96693	0.760235	        -2502.19	          2954.3	         452.111
     961	 1.96607	0.762482	        -2500.79	         2953.01	         452.222
     962	 1.96613	0.762239	        -2500.83	         2953.11	         452.281
     963	 1.96762	0.758356	        -2503.12	         2955.34	         452.218
     964	 1.96999	0.752175	        -2506.79	          2958.9	         452.111
     965	 1.97229	0.746064	        -2510.28	         2962.34	         452.055
     966	 1.97389	0.741445	        -2512.68	         2964.74	         452.053
     967	 1.97469	0.738553	        -2513.88	         2965.94	         452.067
     968	 1.97485	0.737073	        -2514.09	         2966.18	         452.089
     969	 1.97468	0.736354	        -2513.79	         2965.92	         452.131
     970	 1.97463	0.735334	         -2513.7	         2965.86	         452.161
     971	 1.97504	0.733252	        -2514.35	         2966.47	         452.119
     972	 1.97561	0.730791	         -2515.3	         2967.32	          452.02
     973	  1.9756	0.729758	        -2515.36	         2967.31	         451.948
     974	 1.97447	0.731424	        -2513.68	         2965.62	         451.944
     975	 1.97226	0.735659	        -2510.32	         2962.29	         451.973
     976	  1.9693	0.741569	        -2505.86	         2957.85	         451.988
     977	 1.96593	0.748349	        -2500.79	         2952.81	         452.018
     978	 1.96265	0.754866	        -2495.79	         2947.89	         452.101
     979	 1.96026	 0.75915	        -2492.13	          2944.3	         452.176
     980	 1.95942	0.759603	        -2490.85	         2943.03	         452.186
     981	 1.96014	0.756145	        -2491.98	         2944.12	         452.139
     982	 1.96182	0.750158	         -2494.6	         2946.64	         452.044
     983	 1.96344	 0.74402	        -2497.11	         2949.08	         451.965
     984	 1.96423	0.739627	        -2498.25	         2950.25	         451.997
     985	  1.9644	0.736503	        -2498.37	         2950.52	         452.144
     986	  1.9652	 0.73179	        -2499.42	         2951.71	         452.288
     987	 1.96775	 0.72281	        -2503.25	         2955.53	         452.283
     988	 1.97188	0.710031	         -2509.6	         2961.73	         452.136
     989	  1.9762	0.696929	         -2516.2	          2968.2	         451.998
     990	 1.97927	0.686893	        -2520.84	         2972.82	         451.974
     991	 1.98066	0.680968	        -2522.86	          2974.9	         452.041
     992	 1.98077	0.678153	        -2522.95	         2975.07	         452.122
     993	 1.98024	0.676932	        -2522.08	         2974.27	         452.181
     994	 1.97957	0.676092	        -2521.03	         2973.26	         452.225
     995	 1.97911	0.674735	        -2520.33	         2972.57	         452.246
     996	 1.97899	  0.6725	        -2520.16	         2972.39	         452.231
     997	 1.97902	0.669756	        -2520.24	         2972.44	         452.201
     998	 1.97889	0.667197	        -2520.07	         2972.25	         452.177
     999	 1.97834	0.665376	        -2519.25	         2971.41	         452.165
