    Step 	 temperature 	 pressure 	 Potential Energy 	 Kinetic Energy 	 Sum Energy

       0	 2.61982	 1.19022	        -5646.82	         3933.33	        -1713.49
       1	 2.60501	 1.27256	         -5624.8	         3911.12	        -1713.68
       2	 2.55964	 1.52349	        -5557.11	         3843.06	        -1714.05
       3	  2.4813	 1.95126	        -5440.11	         3725.56	        -1714.55
       4	 2.36742	 2.56339	        -5269.68	         3554.73	        -1714.94
       5	 2.21783	 3.35508	        -5045.07	         3330.35	        -1714.72
       6	 2.03949	 4.28829	         -4776.1	         3062.83	        -1713.27
       7	 1.85098	 5.27026	        -4490.71	         2780.08	        -1710.64
       8	 1.68042	 6.16277	        -4232.32	         2524.23	        -1708.09
       9	 1.55386	 6.83815	        -4041.31	         2334.39	        -1706.92
      10	 1.48373	  7.2353	        -3936.48	         2229.19	        -1707.28
      11	 1.46681	 7.36807	        -3912.35	         2203.82	        -1708.52
      12	  1.4901	 7.29723	         -3948.7	         2238.75	        -1709.95
      13	 1.53774	  7.0978	        -4021.37	         2310.22	        -1711.15
      14	 1.59574	 6.83739	        -4109.19	         2397.21	        -1711.98
      15	 1.65378	 6.56693	        -4196.74	         2484.27	        -1712.47
      16	 1.70542	  6.3196	         -4274.4	         2561.73	        -1712.68
      17	 1.74751	 6.11282	        -4337.53	         2624.87	        -1712.66
      18	 1.77965	  5.9508	        -4385.53	         2673.08	        -1712.45
      19	 1.80362	 5.82676	        -4421.14	         2709.03	        -1712.11
      20	  1.8227	  5.7262	         -4449.4	         2737.65	        -1711.76
      21	 1.84048	 5.63281	        -4475.85	         2764.32	        -1711.52
      22	 1.85945	 5.53514	        -4504.26	         2792.77	        -1711.49
      23	 1.88021	 5.43038	        -4535.53	         2823.91	        -1711.62
      24	 1.90191	 5.32271	        -4568.23	         2856.46	        -1711.77
      25	 1.92339	 5.21762	        -4600.52	         2888.69	        -1711.83
      26	 1.94427	 5.11704	        -4631.79	         2920.01	        -1711.78
      27	 1.96522	 5.01809	         -4663.1	         2951.43	        -1711.67
      28	 1.98729	 4.91594	        -4696.22	         2984.54	        -1711.68
      29	 2.01029	 4.81149	        -4731.01	         3019.03	        -1711.98
      30	 2.03154	 4.71745	        -4763.32	         3050.92	        -1712.41
      31	 2.04741	  4.6515	        -4787.33	         3074.72	        -1712.61
      32	 2.05614	 4.62195	        -4800.33	         3087.82	        -1712.52
      33	  2.0585	 4.62464	         -4803.8	         3091.35	        -1712.45
      34	 2.05527	 4.65561	        -4799.05	         3086.51	        -1712.54
      35	 2.04642	 4.71546	        -4785.75	         3073.24	        -1712.51
      36	 2.03273	 4.79996	        -4765.06	         3052.69	        -1712.37
      37	 2.01597	 4.89961	        -4739.83	         3027.56	        -1712.27
      38	 1.99793	 5.00546	        -4712.66	         3000.49	        -1712.17
      39	 1.98062	 5.10746	        -4686.44	         2974.53	        -1711.91
      40	  1.9671	 5.19038	        -4665.87	         2954.25	        -1711.62
      41	 1.96042	 5.23897	        -4655.75	         2944.23	        -1711.52
      42	 1.96177	 5.24737	        -4657.86	         2946.26	         -1711.6
      43	 1.97038	 5.21923	        -4670.93	         2959.18	        -1711.75
      44	 1.98437	 5.16341	        -4692.12	         2980.15	        -1711.97
      45	 2.00116	 5.09234	        -4717.53	         3005.34	        -1712.19
      46	 2.01816	  5.0189	        -4743.16	         3030.84	        -1712.32
      47	 2.03351	 4.95232	        -4766.27	         3053.87	         -1712.4
      48	 2.04594	 4.89911	        -4785.03	         3072.51	        -1712.52
      49	 2.05407	 4.86634	        -4797.37	         3084.71	        -1712.66
      50	 2.05673	 4.86023	        -4801.39	         3088.69	         -1712.7
      51	 2.05384	  4.8814	        -4796.98	         3084.36	        -1712.62
      52	 2.04656	 4.92431	        -4785.96	         3073.44	        -1712.52
      53	 2.03664	 4.98069	        -4770.93	         3058.56	        -1712.37
      54	 2.02652	 5.03912	        -4755.49	         3043.38	        -1712.11
      55	 2.01924	 5.08467	         -4744.4	         3032.46	        -1711.94
      56	 2.01666	 5.10787	        -4740.65	         3028.59	        -1712.06
      57	 2.01802	 5.11219	        -4742.93	         3030.63	         -1712.3
      58	  2.0211	 5.10783	        -4747.74	         3035.25	        -1712.49
      59	 2.02397	 5.10361	        -4752.13	         3039.56	        -1712.57
      60	 2.02594	 5.10297	           -4755	         3042.51	        -1712.49
      61	 2.02757	 5.10314	        -4757.37	         3044.96	        -1712.41
      62	 2.02949	 5.10112	        -4760.29	         3047.84	        -1712.45
      63	 2.03127	 5.09919	        -4763.04	          3050.5	        -1712.53
      64	 2.03198	 5.10175	        -4764.13	         3051.58	        -1712.55
      65	 2.03124	 5.11069	        -4762.95	         3050.46	        -1712.49
      66	 2.02932	 5.12474	        -4759.98	         3047.58	         -1712.4
      67	 2.02695	 5.14072	        -4756.35	         3044.02	        -1712.33
      68	 2.02465	 5.15625	        -4752.93	         3040.58	        -1712.35
      69	 2.02228	 5.17223	        -4749.46	         3037.02	        -1712.45
      70	  2.0191	 5.19216	         -4744.8	         3032.25	        -1712.55
      71	 2.01451	 5.21901	        -4737.95	         3025.37	        -1712.58
      72	 2.00867	 5.25204	        -4729.11	         3016.61	         -1712.5
      73	 2.00281	 5.28543	        -4720.17	         3007.82	        -1712.35
      74	 1.99878	 5.31042	        -4713.99	         3001.77	        -1712.22
      75	 1.99793	 5.32026	        -4712.75	         3000.49	        -1712.26
      76	 1.99983	  5.3166	        -4715.84	         3003.34	         -1712.5
      77	 2.00222	 5.31007	        -4719.66	         3006.93	        -1712.73
      78	 2.00277	 5.31141	        -4720.57	         3007.76	        -1712.81
      79	 2.00041	 5.32543	        -4716.97	         3004.22	        -1712.75
      80	 1.99574	 5.34951	        -4709.71	          2997.2	        -1712.51
      81	 1.99095	 5.37341	        -4702.27	         2990.02	        -1712.25
      82	  1.9883	  5.3864	        -4698.27	         2986.05	        -1712.22
      83	 1.98818	 5.38693	        -4698.23	         2985.87	        -1712.36
      84	 1.98946	 5.38066	        -4700.25	         2987.79	        -1712.45
      85	 1.99143	 5.37124	        -4703.11	         2990.75	        -1712.36
      86	 1.99489	 5.35504	        -4708.13	         2995.94	        -1712.19
      87	 2.00124	 5.32554	        -4717.63	         3005.46	        -1712.17
      88	 2.01038	 5.28337	        -4731.57	         3019.18	        -1712.39
      89	 2.02006	 5.23962	         -4746.4	         3033.69	         -1712.7
      90	   2.027	 5.20985	        -4757.03	          3044.1	        -1712.94
      91	 2.02871	  5.2058	        -4759.64	         3046.67	        -1712.97
      92	 2.02468	 5.22971	        -4753.44	         3040.62	        -1712.82
      93	 2.01626	  5.2748	        -4740.61	         3027.99	        -1712.61
      94	 2.00555	 5.33078	        -4724.38	         3011.93	        -1712.45
      95	  1.9944	  5.3886	        -4707.56	          2995.2	        -1712.36
      96	 1.98408	 5.44191	        -4692.05	         2979.72	        -1712.32
      97	 1.97534	 5.48681	        -4678.93	         2966.61	        -1712.32
      98	  1.9686	  5.5211	         -4668.8	          2956.5	        -1712.31
      99	 1.96427	 5.54273	        -4662.27	         2950.01	        -1712.26
     100	 1.96294	 5.54884	        -4660.25	         2948.02	        -1712.23
     101	 1.96482	 5.53835	        -4663.14	         2950.83	        -1712.31
     102	 1.96924	 5.51465	        -4669.86	         2957.47	        -1712.39
     103	 1.97537	  5.4822	        -4679.04	         2966.65	        -1712.39
     104	 1.98271	 5.44316	        -4690.11	         2977.67	        -1712.44
     105	 1.99044	  5.4016	        -4701.84	         2989.26	        -1712.57
     106	 1.99724	 5.36424	        -4712.05	         2999.46	        -1712.59
     107	 2.00273	 5.33311	        -4720.15	          3007.7	        -1712.45
     108	 2.00803	 5.30301	        -4727.91	         3015.65	        -1712.26
     109	 2.01476	 5.26653	        -4737.89	         3025.74	        -1712.15
     110	 2.02385	 5.21947	        -4751.54	         3039.37	        -1712.17
     111	 2.03497	 5.16356	        -4768.38	         3056.05	        -1712.32
     112	  2.0464	 5.10703	        -4785.76	          3073.2	        -1712.56
     113	 2.05562	 5.06178	        -4799.78	         3087.03	        -1712.75
     114	  2.0605	 5.03774	        -4807.15	         3094.35	         -1712.8
     115	 2.06035	 5.03802	         -4806.8	         3094.12	        -1712.68
     116	 2.05624	 5.05736	         -4800.4	         3087.96	        -1712.45
     117	 2.05043	 5.08492	        -4791.45	         3079.25	         -1712.2
     118	 2.04541	 5.10906	        -4783.72	         3071.72	        -1712.01
     119	   2.043	 5.12105	        -4780.08	          3068.1	        -1711.97
     120	 2.04343	 5.11972	        -4780.87	         3068.74	        -1712.13
     121	 2.04531	 5.11189	        -4783.86	         3071.57	         -1712.3
     122	 2.04702	 5.10553	         -4786.5	         3074.13	        -1712.37
     123	 2.04763	 5.10503	        -4787.48	         3075.05	        -1712.43
     124	 2.04632	 5.11424	        -4785.67	         3073.09	        -1712.58
     125	 2.04184	 5.13928	        -4779.08	         3066.36	        -1712.72
     126	 2.03326	 5.18457	         -4766.2	         3053.49	         -1712.7
     127	 2.02119	 5.24713	        -4747.87	         3035.38	        -1712.49
     128	 2.00809	 5.31499	        -4727.92	         3015.74	        -1712.18
     129	 1.99721	 5.37238	        -4711.42	         2999.42	           -1712
     130	 1.99051	 5.40962	        -4701.44	         2989.37	        -1712.07
     131	 1.98773	 5.42791	        -4697.44	         2985.19	        -1712.25
     132	 1.98729	 5.43435	        -4696.97	         2984.54	        -1712.42
     133	 1.98739	 5.43714	        -4697.27	         2984.69	        -1712.58
     134	 1.98657	 5.44315	        -4696.04	         2983.45	        -1712.59
     135	 1.98484	  5.4524	        -4693.25	         2980.86	        -1712.39
     136	 1.98392	  5.4566	        -4691.68	         2979.49	        -1712.19
     137	 1.98558	 5.44731	        -4694.15	         2981.97	        -1712.18
     138	 1.99004	 5.42381	        -4700.95	         2988.67	        -1712.28
     139	 1.99659	 5.39014	        -4710.78	         2998.48	         -1712.3
     140	 2.00489	 5.34817	         -4723.2	         3010.93	        -1712.26
     141	 2.01486	 5.29853	        -4738.24	         3025.89	        -1712.36
     142	 2.02531	 5.24723	        -4754.18	         3041.57	        -1712.61
     143	 2.03371	 5.20678	        -4767.03	         3054.17	        -1712.86
     144	 2.03749	  5.1896	        -4772.79	         3059.83	        -1712.96
     145	 2.03542	 5.20135	        -4769.66	         3056.74	        -1712.92
     146	 2.02773	 5.24072	        -4758.04	          3045.2	        -1712.84
     147	 2.01527	 5.30316	        -4739.31	         3026.51	         -1712.8
     148	 1.99899	 5.38372	        -4714.84	         3002.09	        -1712.75
     149	 1.98025	 5.47557	        -4686.55	         2973.97	        -1712.58
     150	 1.96156	 5.56624	        -4658.22	         2945.94	        -1712.28
     151	 1.94653	 5.63813	        -4635.38	          2923.4	        -1711.98
     152	  1.9386	 5.67471	        -4623.32	         2911.51	        -1711.81
     153	 1.93986	 5.66609	        -4625.23	          2913.4	        -1711.83
     154	 1.94993	 5.61372	        -4640.68	          2928.5	        -1712.18
     155	 1.96529	 5.53456	        -4664.15	         2951.54	        -1712.61
     156	 1.98155	 5.45029	        -4688.61	         2975.92	        -1712.69
     157	 1.99681	 5.37016	        -4711.36	         2998.82	        -1712.54
     158	 2.01119	 5.29385	        -4732.93	         3020.38	        -1712.55
     159	 2.02385	 5.22592	        -4752.13	         3039.38	        -1712.75
     160	 2.03263	 5.17761	        -4765.44	         3052.55	         -1712.9
     161	 2.03593	 5.15668	        -4770.35	          3057.5	        -1712.86
     162	 2.03401	  5.1618	        -4767.31	         3054.61	        -1712.69
     163	 2.02866	 5.18444	        -4759.06	          3046.6	        -1712.46
     164	 2.02243	  5.2124	        -4749.53	         3037.24	        -1712.28
     165	  2.0173	 5.23573	        -4741.83	         3029.55	        -1712.28
     166	 2.01371	 5.25213	        -4736.55	         3024.17	        -1712.38
     167	 2.01107	 5.26421	        -4732.65	          3020.2	        -1712.45
     168	 2.00883	 5.27424	        -4729.34	         3016.85	        -1712.49
     169	 2.00694	 5.28283	        -4726.47	         3014.01	        -1712.46
     170	 2.00574	 5.28823	        -4724.69	          3012.2	        -1712.49
     171	 2.00483	 5.29204	        -4723.52	         3010.84	        -1712.68
     172	 2.00276	 5.30169	        -4720.43	         3007.74	        -1712.69
     173	 1.99914	  5.3186	        -4714.86	         3002.31	        -1712.55
     174	 1.99516	 5.33716	        -4708.66	         2996.34	        -1712.32
     175	 1.99308	  5.3472	        -4705.22	         2993.22	           -1712
     176	 1.99531	 5.33696	         -4708.5	         2996.57	        -1711.93
     177	 2.00211	  5.3054	        -4718.87	         3006.76	         -1712.1
     178	 2.01164	 5.26152	        -4733.27	         3021.06	        -1712.21
     179	 2.02225	 5.21291	         -4749.2	         3036.97	        -1712.22
     180	 2.03321	 5.16277	        -4765.62	         3053.42	         -1712.2
     181	 2.04425	 5.11244	        -4782.19	         3069.98	        -1712.21
     182	 2.05477	  5.0648	        -4798.08	         3085.76	        -1712.32
     183	  2.0634	 5.02651	         -4811.2	         3098.71	         -1712.5
     184	 2.06837	 5.00624	        -4818.78	         3106.15	        -1712.62
     185	 2.06835	 5.01016	        -4818.78	         3106.13	        -1712.64
     186	 2.06318	 5.03889	        -4810.93	         3098.37	        -1712.56
     187	 2.05382	 5.08733	        -4796.73	         3084.34	        -1712.39
     188	  2.0423	 5.14556	        -4779.17	         3067.05	        -1712.12
     189	 2.03164	 5.19883	        -4762.85	         3051.07	        -1711.78
     190	 2.02525	 5.23062	        -4753.06	         3041.48	        -1711.59
     191	   2.025	  5.2317	         -4752.8	         3041.11	        -1711.69
     192	 2.03006	 5.20643	        -4760.67	          3048.7	        -1711.97
     193	  2.0378	 5.16785	        -4772.54	          3060.3	        -1712.24
     194	 2.04549	 5.12935	        -4784.28	         3071.84	        -1712.44
     195	 2.05106	 5.10123	        -4792.81	         3080.19	        -1712.62
     196	 2.05273	 5.09218	        -4795.49	          3082.7	        -1712.79
     197	 2.04918	 5.10889	         -4790.2	         3077.37	        -1712.84
     198	 2.04037	 5.15149	        -4776.88	         3064.16	        -1712.72
     199	  2.0278	 5.21247	        -4757.86	         3045.31	        -1712.56
     200	 2.01352	 5.28157	        -4736.33	         3023.88	        -1712.45
     201	 1.99927	 5.35004	        -4714.87	         3002.51	        -1712.36
     202	 1.98681	 5.40935	        -4695.98	         2983.81	        -1712.17
     203	 1.97853	 5.44771	        -4683.32	         2971.39	        -1711.92
     204	 1.97704	 5.45259	        -4680.93	         2969.17	        -1711.76
     205	 1.98395	 5.41659	        -4691.31	         2979.52	        -1711.79
     206	 1.99856	   5.343	        -4713.55	         3001.44	        -1712.11
     207	 2.01722	 5.24962	        -4742.04	         3029.44	         -1712.6
     208	 2.03454	 5.16262	        -4768.47	         3055.42	        -1713.05
     209	 2.04547	 5.10637	        -4785.14	         3071.81	        -1713.33
     210	 2.04679	 5.09661	        -4787.16	         3073.79	        -1713.37
     211	 2.03798	 5.13643	        -4773.75	         3060.57	        -1713.18
     212	  2.0211	 5.21632	        -4748.12	         3035.25	        -1712.87
     213	 1.99962	 5.31978	        -4715.62	         3003.04	        -1712.59
     214	 1.97726	 5.42937	        -4681.75	         2969.49	        -1712.26
     215	 1.95809	 5.52559	        -4652.59	         2940.74	        -1711.86
     216	 1.94624	 5.58794	        -4634.63	         2922.96	        -1711.67
     217	 1.94361	 5.60664	        -4630.88	         2919.01	        -1711.86
     218	 1.94864	 5.58893	        -4638.77	         2926.56	        -1712.21
     219	 1.95794	  5.5507	        -4653.03	         2940.52	        -1712.51
     220	 1.96823	 5.50727	        -4668.69	         2955.95	        -1712.74
     221	 1.97688	 5.47102	        -4681.82	         2968.92	         -1712.9
     222	 1.98239	 5.44952	        -4690.05	         2977.19	        -1712.86
     223	 1.98546	 5.44028	        -4694.36	         2981.79	        -1712.57
     224	 1.98845	 5.43173	        -4698.79	         2986.28	        -1712.51
     225	  1.9916	 5.42242	        -4703.89	         2991.01	        -1712.88
     226	  1.9921	 5.42687	        -4704.75	         2991.75	           -1713
     227	 1.98877	 5.45068	        -4699.46	         2986.76	        -1712.69
     228	 1.98407	 5.48191	        -4692.02	          2979.7	        -1712.31
     229	 1.98134	 5.50457	        -4687.81	         2975.62	        -1712.19
     230	 1.98185	 5.51291	        -4688.75	         2976.38	        -1712.36
     231	 1.98399	 5.51444	        -4692.28	         2979.59	        -1712.69
     232	 1.98459	  5.5237	        -4693.46	         2980.49	        -1712.97
     233	 1.98089	 5.55334	        -4687.95	         2974.93	        -1713.02
     234	 1.97242	 5.60512	        -4674.99	         2962.22	        -1712.76
     235	 1.96152	 5.66734	        -4658.26	         2945.89	        -1712.37
     236	 1.95202	 5.72163	        -4643.68	         2931.64	        -1712.04
     237	 1.94702	 5.75286	         -4636.1	         2924.13	        -1711.97
     238	 1.94734	 5.75697	        -4636.68	         2924.62	        -1712.06
     239	 1.95218	 5.73809	        -4643.99	         2931.87	        -1712.13
     240	 1.96036	  5.7014	        -4656.39	         2944.15	        -1712.24
     241	 1.97025	 5.65466	        -4671.46	         2958.97	        -1712.49
     242	 1.97923	 5.61037	        -4685.18	         2972.44	        -1712.74
     243	 1.98477	 5.58068	         -4693.6	         2980.76	        -1712.84
     244	 1.98589	 5.57028	        -4695.17	         2982.44	        -1712.73
     245	 1.98381	 5.57349	        -4691.73	         2979.31	        -1712.42
     246	 1.98175	 5.57529	        -4688.22	         2976.22	        -1711.99
     247	 1.98382	 5.55641	        -4691.04	         2979.33	         -1711.7
     248	 1.99254	 5.50484	        -4704.25	         2992.42	        -1711.84
     249	 2.00656	 5.42726	        -4725.75	         3013.45	         -1712.3
     250	 2.02152	 5.34502	        -4748.55	         3035.88	        -1712.67
     251	 2.03351	 5.27703	        -4766.59	         3053.87	        -1712.72
     252	 2.04155	 5.22836	        -4778.44	         3065.93	        -1712.51
     253	 2.04697	 5.19299	        -4786.39	         3074.06	        -1712.33
     254	 2.05109	 5.16494	         -4792.6	         3080.24	        -1712.36
     255	 2.05366	 5.14579	         -4796.6	          3084.1	         -1712.5
     256	 2.05347	 5.14145	        -4796.39	         3083.81	        -1712.58
     257	 2.05001	 5.15432	         -4791.1	         3078.62	        -1712.48
     258	 2.04446	 5.17878	        -4782.53	         3070.29	        -1712.24
     259	 2.03936	 5.20272	        -4774.67	         3062.64	        -1712.03
     260	 2.03688	 5.21542	        -4771.02	         3058.93	        -1712.09
     261	  2.0368	 5.21767	        -4771.22	         3058.81	        -1712.41
     262	 2.03678	 5.22063	        -4771.41	         3058.77	        -1712.64
     263	 2.03505	 5.23245	        -4768.76	         3056.17	        -1712.59
     264	 2.03198	 5.25079	        -4764.01	         3051.58	        -1712.43
     265	 2.02901	 5.26849	        -4759.49	         3047.12	        -1712.36
     266	 2.02686	 5.28209	        -4756.31	         3043.89	        -1712.41
     267	 2.02508	 5.29356	        -4753.74	         3041.23	        -1712.51
     268	  2.0227	 5.30737	        -4750.23	         3037.66	        -1712.57
     269	 2.01912	 5.32632	        -4744.78	         3032.28	         -1712.5
     270	   2.015	 5.34728	        -4738.38	          3026.1	        -1712.28
     271	 2.01205	 5.36194	        -4733.81	         3021.68	        -1712.13
     272	 2.01138	 5.36494	        -4732.89	         3020.67	        -1712.22
     273	 2.01215	 5.36039	        -4734.24	         3021.82	        -1712.42
     274	 2.01258	 5.35716	        -4734.97	         3022.47	         -1712.5
     275	 2.01194	 5.35902	        -4733.91	         3021.51	        -1712.39
     276	 2.01102	 5.36229	        -4732.45	         3020.14	        -1712.31
     277	 2.01034	 5.36431	         -4731.6	         3019.11	        -1712.49
     278	 2.00855	 5.37154	        -4729.15	         3016.42	        -1712.72
     279	 2.00403	 5.39198	        -4722.29	         3009.65	        -1712.64
     280	  1.9978	 5.42069	        -4712.53	          3000.3	        -1712.22
     281	 1.99358	 5.43952	        -4705.81	         2993.97	        -1711.84
     282	 1.99468	 5.43249	        -4707.43	         2995.63	         -1711.8
     283	 2.00145	 5.39829	         -4717.8	         3005.77	        -1712.02
     284	 2.01164	 5.34787	        -4733.33	         3021.06	        -1712.27
     285	 2.02245	 5.29474	        -4749.72	         3037.27	        -1712.45
     286	 2.03172	 5.24933	        -4763.75	         3051.18	        -1712.57
     287	 2.03791	 5.21929	        -4773.16	         3060.46	        -1712.69
     288	 2.03984	 5.21061	        -4776.12	         3063.36	        -1712.76
     289	 2.03712	 5.22568	        -4771.96	         3059.28	        -1712.68
     290	 2.03085	 5.25965	        -4762.35	         3049.88	        -1712.46
     291	 2.02309	  5.3025	         -4750.6	         3038.24	        -1712.36
     292	 2.01495	 5.34854	         -4738.5	         3026.03	        -1712.47
     293	 2.00595	 5.39988	         -4725.1	         3012.52	        -1712.57
     294	 1.99548	 5.45878	        -4709.35	         2996.82	        -1712.53
     295	 1.98414	 5.52153	         -4692.2	         2979.81	        -1712.39
     296	 1.97365	 5.57957	        -4676.24	         2964.07	        -1712.17
     297	 1.96639	 5.62141	         -4665.1	         2953.18	        -1711.91
     298	 1.96479	 5.63544	        -4662.57	         2950.78	        -1711.78
     299	 1.96984	 5.61683	        -4670.28	         2958.36	        -1711.92
     300	 1.97997	 5.57319	        -4685.81	         2973.56	        -1712.25
     301	  1.9917	 5.52123	        -4703.74	         2991.15	        -1712.59
     302	 2.00139	 5.47826	        -4718.48	         3005.69	        -1712.79
     303	 2.00675	 5.45544	        -4726.54	         3013.73	        -1712.81
     304	 2.00734	 5.45516	        -4727.31	         3014.62	         -1712.7
     305	 2.00417	  5.4729	        -4722.43	         3009.86	        -1712.57
     306	 1.99849	 5.50275	        -4713.89	         3001.34	        -1712.55
     307	 1.99094	 5.54168	        -4702.55	         2990.01	        -1712.54
     308	 1.98219	 5.58646	        -4689.29	         2976.88	        -1712.41
     309	 1.97377	 5.62919	        -4676.53	         2964.26	        -1712.26
     310	  1.9673	 5.66159	        -4666.84	         2954.55	        -1712.29
     311	 1.96293	 5.68242	        -4660.47	         2947.99	        -1712.48
     312	 1.95949	 5.69689	        -4655.48	         2942.83	        -1712.64
     313	 1.95597	  5.7094	         -4650.2	         2937.56	        -1712.63
     314	 1.95287	 5.71746	        -4645.34	          2932.9	        -1712.44
     315	 1.95218	 5.71154	        -4644.06	         2931.87	        -1712.19
     316	 1.95624	 5.68081	        -4650.05	         2937.96	        -1712.09
     317	  1.9657	  5.6224	        -4664.45	         2952.15	         -1712.3
     318	 1.97849	 5.54671	        -4683.98	         2971.34	        -1712.65
     319	 1.99129	 5.47026	        -4703.39	         2990.54	        -1712.86
     320	 2.00184	 5.40416	        -4719.22	         3006.36	        -1712.86
     321	 2.00983	 5.35041	        -4731.08	         3018.34	        -1712.74
     322	  2.0164	 5.30442	        -4740.74	         3028.21	        -1712.53
     323	  2.0234	 5.25816	        -4751.11	          3038.7	         -1712.4
     324	 2.03163	 5.20781	        -4763.67	         3051.05	        -1712.62
     325	 2.03907	 5.16349	        -4775.17	         3062.21	        -1712.96
     326	 2.04278	 5.14005	        -4780.72	         3067.77	        -1712.95
     327	 2.04231	  5.1391	        -4779.85	         3067.07	        -1712.78
     328	 2.03864	 5.15531	        -4774.33	         3061.56	        -1712.77
     329	   2.032	  5.1876	        -4764.37	          3051.6	        -1712.77
     330	 2.02267	  5.2344	        -4750.23	         3037.61	        -1712.62
     331	 2.01216	 5.28805	        -4734.23	         3021.84	         -1712.4
     332	 2.00247	 5.33833	        -4719.58	         3007.31	        -1712.27
     333	 1.99487	 5.37893	        -4708.16	         2995.91	        -1712.25
     334	 1.98958	 5.40854	        -4700.22	         2987.97	        -1712.25
     335	 1.98653	 5.42722	        -4695.61	          2983.4	        -1712.22
     336	 1.98585	 5.43416	        -4694.56	         2982.38	        -1712.18
     337	 1.98773	 5.42851	        -4697.36	         2985.19	        -1712.17
     338	 1.99208	  5.4108	        -4703.92	         2991.72	         -1712.2
     339	 1.99828	 5.38414	        -4713.36	         3001.03	        -1712.33
     340	 2.00485	 5.35575	        -4723.44	         3010.88	        -1712.56
     341	 2.00948	 5.33673	        -4730.61	         3017.82	        -1712.79
     342	 2.00997	 5.33766	        -4731.47	         3018.56	        -1712.91
     343	 2.00521	 5.36377	        -4724.35	         3011.42	        -1712.92
     344	 1.99532	 5.41439	        -4709.43	         2996.57	        -1712.85
     345	 1.98158	 5.48335	        -4688.61	         2975.97	        -1712.64
     346	 1.96673	 5.55758	        -4666.02	          2953.7	        -1712.32
     347	 1.95443	 5.61938	        -4647.32	         2935.24	        -1712.07
     348	 1.94757	 5.65455	           -4637	         2924.96	        -1712.04
     349	 1.94711	 5.65857	        -4636.42	         2924.27	        -1712.15
     350	 1.95225	 5.63519	         -4644.3	         2931.98	        -1712.32
     351	 1.96127	 5.59261	        -4658.05	         2945.51	        -1712.54
     352	 1.97166	 5.54279	         -4673.9	         2961.09	        -1712.81
     353	 1.98054	 5.49993	        -4687.39	         2974.41	        -1712.98
     354	   1.986	 5.47361	        -4695.54	          2982.6	        -1712.94
     355	 1.98807	 5.46392	        -4698.49	         2985.71	        -1712.77
     356	 1.98802	 5.46482	         -4698.3	         2985.63	        -1712.67
     357	 1.98679	 5.47164	        -4696.45	         2983.79	        -1712.66
     358	 1.98479	 5.48247	         -4693.4	         2980.79	        -1712.61
     359	 1.98271	 5.49369	        -4690.16	         2977.67	        -1712.49
     360	 1.98175	 5.49924	        -4688.63	         2976.22	        -1712.41
     361	 1.98257	 5.49553	        -4689.95	         2977.45	         -1712.5
     362	 1.98448	 5.48603	        -4692.94	         2980.32	        -1712.62
     363	 1.98644	 5.47613	        -4695.87	         2983.26	        -1712.61
     364	 1.98828	 5.46668	        -4698.62	         2986.03	        -1712.59
     365	 1.98984	 5.45841	        -4701.12	         2988.37	        -1712.75
     366	  1.9897	  5.4583	        -4701.13	         2988.15	        -1712.98
     367	 1.98613	 5.47488	        -4695.77	          2982.8	        -1712.97
     368	 1.97957	 5.50617	        -4685.62	         2972.96	        -1712.66
     369	 1.97271	  5.5387	        -4675.09	         2962.67	        -1712.42
     370	 1.96788	 5.56131	        -4667.79	         2955.42	        -1712.37
     371	 1.96587	 5.57068	        -4664.69	         2952.41	        -1712.28
     372	 1.96722	 5.56418	        -4666.65	         2954.43	        -1712.22
     373	 1.97176	  5.5421	        -4673.63	         2961.24	        -1712.39
     374	 1.97751	 5.51384	        -4682.51	         2969.87	        -1712.64
     375	 1.98174	 5.49249	        -4688.97	         2976.22	        -1712.76
     376	 1.98301	 5.48482	        -4690.76	         2978.12	        -1712.64
     377	 1.98203	 5.48734	        -4689.04	         2976.65	         -1712.4
     378	 1.98088	  5.4903	        -4687.08	         2974.92	        -1712.16
     379	 1.98173	 5.48378	        -4688.21	         2976.19	        -1712.02
     380	 1.98575	 5.46235	         -4694.3	         2982.23	        -1712.07
     381	 1.99222	 5.42953	        -4704.28	         2991.93	        -1712.35
     382	 1.99838	 5.39837	        -4713.87	         3001.17	        -1712.71
     383	 2.00078	 5.38509	        -4717.71	         3004.78	        -1712.93
     384	 1.99746	 5.39905	        -4712.64	         2999.79	        -1712.85
     385	 1.98933	 5.43569	        -4700.11	          2987.6	        -1712.51
     386	 1.97981	  5.4787	        -4685.46	         2973.32	        -1712.14
     387	  1.9726	 5.51034	        -4674.47	          2962.5	        -1711.97
     388	 1.96978	 5.52083	        -4670.28	         2958.28	           -1712
     389	 1.97147	 5.50976	        -4672.94	         2960.81	        -1712.13
     390	 1.97673	 5.48174	        -4680.93	          2968.7	        -1712.22
     391	 1.98473	 5.44126	         -4692.9	         2980.69	         -1712.2
     392	 1.99548	  5.3889	        -4708.94	         2996.82	        -1712.11
     393	  2.0091	 5.32428	        -4729.52	         3017.25	        -1712.27
     394	 2.02354	 5.25738	        -4751.58	         3038.91	        -1712.67
     395	 2.03489	 5.20753	        -4768.83	         3055.94	        -1712.89
     396	 2.04071	 5.18635	        -4777.45	         3064.66	        -1712.78
     397	 2.04151	 5.19072	        -4778.44	         3065.87	        -1712.57
     398	 2.03905	 5.21165	        -4774.68	         3062.18	         -1712.5
     399	 2.03422	 5.24427	        -4767.48	         3054.93	        -1712.54
     400	 2.02704	 5.28785	        -4756.72	         3044.17	        -1712.55
     401	 2.01777	 5.34025	        -4742.75	         3030.26	        -1712.48
     402	 2.00737	 5.39606	        -4727.03	         3014.65	        -1712.38
     403	 1.99733	 5.44767	        -4711.81	         2999.59	        -1712.22
     404	 1.98982	 5.48482	        -4700.31	         2988.34	        -1711.97
     405	 1.98765	 5.49431	        -4696.86	         2985.08	        -1711.78
     406	 1.99251	 5.46788	        -4704.36	         2992.37	        -1711.98
     407	 2.00248	 5.41498	        -4719.85	         3007.33	        -1712.52
     408	  2.0126	    5.36	        -4735.49	          3022.5	        -1712.99
     409	 2.01835	 5.32494	        -4744.27	         3031.13	        -1713.13
     410	 2.01802	 5.31849	        -4743.65	         3030.64	        -1713.01
     411	 2.01261	 5.33661	        -4735.23	         3022.52	        -1712.71
     412	 2.00496	 5.36648	        -4723.39	         3011.05	        -1712.34
     413	  1.9984	 5.39254	        -4713.31	          3001.2	        -1712.11
     414	 1.99515	 5.40441	        -4708.37	         2996.32	        -1712.05
     415	 1.99583	 5.39921	        -4709.42	         2997.35	        -1712.07
     416	 2.00008	 5.37859	        -4715.87	         3003.72	        -1712.15
     417	 2.00687	 5.34711	         -4726.2	          3013.9	         -1712.3
     418	 2.01441	 5.31287	        -4737.73	         3025.22	        -1712.51
     419	 2.02035	  5.2868	        -4746.85	         3034.13	        -1712.72
     420	  2.0225	 5.27892	        -4750.18	         3037.36	        -1712.82
     421	 2.01966	 5.29439	         -4745.9	         3033.09	        -1712.81
     422	   2.012	 5.33188	        -4734.27	         3021.61	        -1712.66
     423	 2.00113	 5.38334	        -4717.71	         3005.29	        -1712.42
     424	 1.98953	 5.43622	        -4700.11	          2987.9	        -1712.21
     425	 1.97966	 5.47869	        -4685.14	         2973.09	        -1712.05
     426	 1.97366	 5.50068	        -4675.93	         2964.09	        -1711.85
     427	 1.97368	  5.4921	        -4675.84	         2964.12	        -1711.71
     428	 1.98075	 5.44805	        -4686.63	         2974.72	        -1711.91
     429	 1.99293	 5.37836	        -4705.32	            2993	        -1712.32
     430	 2.00644	 5.30234	        -4725.81	         3013.26	        -1712.55
     431	 2.01875	 5.23295	        -4744.24	         3031.73	        -1712.51
     432	 2.02965	 5.17218	        -4760.47	         3048.08	        -1712.39
     433	 2.03977	 5.11781	        -4775.68	         3063.26	        -1712.43
     434	 2.04821	 5.07428	        -4788.67	         3075.91	        -1712.76
     435	 2.05191	 5.05645	        -4794.52	         3081.46	        -1713.06
     436	 2.04808	 5.07733	        -4788.81	         3075.73	        -1713.08
     437	 2.03654	 5.13717	        -4771.29	         3058.41	        -1712.88
     438	 2.01957	 5.22445	        -4745.54	         3032.95	        -1712.59
     439	 2.00069	 5.32214	        -4716.93	         3004.63	         -1712.3
     440	 1.98368	 5.41213	        -4691.12	         2979.12	           -1712
     441	   1.972	 5.47754	        -4673.44	         2961.61	        -1711.84
     442	 1.96747	 5.50912	        -4666.76	          2954.8	        -1711.95
     443	  1.9692	 5.51084	        -4669.61	          2957.4	        -1712.21
     444	 1.97466	 5.49449	        -4678.02	          2965.6	        -1712.42
     445	 1.98142	 5.47146	        -4688.28	         2975.73	        -1712.54
     446	 1.98785	 5.44944	        -4697.95	         2985.38	        -1712.57
     447	  1.9934	 5.43153	        -4706.19	         2993.71	        -1712.48
     448	 1.99858	 5.41597	        -4713.83	         3001.48	        -1712.35
     449	 2.00423	 5.39911	         -4722.3	         3009.95	        -1712.35
     450	 2.01004	 5.38263	        -4731.21	         3018.67	        -1712.54
     451	 2.01413	 5.37565	        -4737.58	         3024.79	        -1712.79
     452	 2.01395	 5.38967	        -4737.53	         3024.52	        -1713.01
     453	 2.00759	 5.43315	        -4728.05	         3014.98	        -1713.07
     454	 1.99492	 5.50603	        -4708.85	         2995.98	        -1712.87
     455	  1.9783	 5.59627	        -4683.56	         2971.06	         -1712.5
     456	 1.96167	 5.68417	        -4658.28	         2946.11	        -1712.17
     457	 1.94861	 5.75199	        -4638.51	         2926.52	        -1711.99
     458	 1.94127	 5.78907	        -4627.45	          2915.5	        -1711.94
     459	 1.94025	 5.79211	        -4625.99	         2913.98	        -1712.01
     460	 1.94489	 5.76433	        -4633.06	         2920.94	        -1712.12
     461	 1.95392	 5.71218	        -4646.69	         2934.48	        -1712.21
     462	 1.96614	 5.64211	        -4665.09	         2952.82	        -1712.27
     463	 1.98048	 5.56039	        -4686.66	         2974.33	        -1712.33
     464	 1.99584	 5.47362	        -4709.77	         2997.36	        -1712.41
     465	 2.01083	 5.38949	        -4732.42	         3019.85	        -1712.57
     466	 2.02324	  5.3194	        -4751.32	         3038.46	        -1712.85
     467	 2.03012	 5.27813	        -4761.84	         3048.78	        -1713.06
     468	 2.02933	 5.27626	        -4760.62	         3047.59	        -1713.03
     469	 2.02106	 5.31286	        -4747.98	          3035.2	        -1712.79
     470	 2.00754	 5.37688	        -4727.49	         3014.92	        -1712.57
     471	 1.99115	 5.45632	        -4702.83	         2990.33	        -1712.51
     472	 1.97325	 5.54397	        -4675.97	         2963.48	        -1712.49
     473	 1.95514	 5.63302	        -4648.63	         2936.32	        -1712.31
     474	 1.93966	 5.70938	        -4625.05	         2913.09	        -1711.95
     475	 1.93079	 5.75314	        -4611.55	         2899.79	        -1711.77
     476	 1.93093	 5.75248	        -4611.92	            2900	        -1711.91
     477	 1.93948	 5.71086	        -4624.96	         2912.82	        -1712.14
     478	 1.95435	 5.63837	        -4647.48	         2935.13	        -1712.36
     479	 1.97265	 5.54842	        -4675.34	         2962.57	        -1712.77
     480	 1.98986	 5.46301	        -4701.55	         2988.39	        -1713.16
     481	 2.00162	 5.40344	         -4719.3	         3006.04	        -1713.26
     482	  2.0061	 5.37852	         -4725.9	         3012.75	        -1713.15
     483	 2.00381	 5.38579	        -4722.29	         3009.32	        -1712.97
     484	 1.99666	 5.41656	        -4711.29	         2998.59	         -1712.7
     485	 1.98765	 5.45668	        -4697.44	         2985.08	        -1712.36
     486	 1.98024	 5.48929	        -4686.13	         2973.97	        -1712.16
     487	 1.97671	 5.50352	        -4680.75	         2968.66	        -1712.09
     488	 1.97775	 5.49584	        -4682.31	         2970.22	        -1712.09
     489	 1.98302	 5.46746	        -4690.31	         2978.13	        -1712.18
     490	 1.99115	  5.4246	        -4702.67	         2990.33	        -1712.34
     491	 2.00011	 5.37681	        -4716.29	         3003.77	        -1712.52
     492	 2.00773	 5.33412	        -4727.89	          3015.2	        -1712.68
     493	 2.01238	 5.30437	        -4734.91	         3022.17	        -1712.74
     494	 2.01373	 5.28947	        -4736.78	         3024.19	        -1712.58
     495	 2.01355	 5.28155	        -4736.17	         3023.93	        -1712.24
     496	 2.01496	 5.26598	        -4738.13	         3026.04	        -1712.09
     497	 2.01925	 5.23667	        -4744.79	         3032.48	        -1712.31
     498	 2.02449	 5.20362	         -4752.9	         3040.34	        -1712.56
     499	 2.02815	 5.17915	        -4758.43	         3045.82	         -1712.6
     500	  2.0293	 5.16761	        -4760.04	         3047.55	         -1712.5
     501	 2.02857	 5.16614	        -4758.82	         3046.46	        -1712.36
     502	 2.02705	 5.16971	        -4756.47	         3044.18	        -1712.29
     503	 2.02534	 5.17563	        -4753.87	         3041.61	        -1712.26
     504	 2.02366	 5.18277	        -4751.32	         3039.09	        -1712.23
     505	 2.02223	 5.18985	        -4749.16	         3036.95	        -1712.21
     506	 2.02111	  5.1962	        -4747.51	         3035.27	        -1712.24
     507	  2.0201	 5.20244	        -4746.03	         3033.75	        -1712.28
     508	 2.01896	 5.20936	        -4744.31	         3032.05	        -1712.26
     509	 2.01801	  5.2153	        -4742.78	         3030.62	        -1712.16
     510	 2.01826	 5.21532	        -4743.04	         3030.99	        -1712.05
     511	 2.02085	 5.20397	        -4746.86	         3034.88	        -1711.98
     512	 2.02652	 5.17816	        -4755.34	         3043.38	        -1711.95
     513	 2.03552	 5.13707	        -4768.83	         3056.88	        -1711.95
     514	 2.04752	 5.08254	        -4786.94	         3074.88	        -1712.06
     515	 2.06105	 5.02177	        -4807.48	         3095.18	         -1712.3
     516	  2.0735	 4.96754	        -4826.41	         3113.86	        -1712.56
     517	 2.08202	 4.93351	        -4839.37	         3126.63	        -1712.75
     518	 2.08453	 4.92943	        -4843.21	          3130.4	        -1712.81
     519	 2.08054	 4.95778	        -4837.09	         3124.42	        -1712.67
     520	 2.07156	 5.01135	        -4823.35	         3110.95	         -1712.4
     521	 2.06031	 5.07679	         -4806.3	         3094.07	        -1712.23
     522	 2.04881	 5.14422	        -4789.04	         3076.81	        -1712.23
     523	 2.03759	 5.21082	        -4772.28	         3059.99	        -1712.29
     524	 2.02638	  5.2773	        -4755.56	         3043.17	        -1712.39
     525	 2.01451	   5.346	        -4737.86	         3025.37	        -1712.49
     526	  2.0016	 5.41839	        -4718.44	            3006	        -1712.44
     527	 1.98854	  5.4898	        -4698.64	         2986.41	        -1712.22
     528	 1.97757	 5.54914	        -4681.98	         2969.95	        -1712.02
     529	 1.97082	 5.58599	        -4671.82	         2959.83	        -1711.99
     530	  1.9689	 5.59742	        -4669.07	         2956.95	        -1712.12
     531	 1.97078	 5.58835	        -4672.08	         2959.78	         -1712.3
     532	 1.97482	  5.5667	        -4678.25	         2965.83	        -1712.42
     533	 1.97964	 5.53894	        -4685.54	         2973.07	        -1712.48
     534	 1.98439	 5.50942	        -4692.65	         2980.18	        -1712.47
     535	 1.98876	  5.4799	        -4699.15	         2986.73	        -1712.41
     536	 1.99288	 5.44996	        -4705.32	         2992.92	         -1712.4
     537	  1.9967	 5.42016	        -4711.11	         2998.65	        -1712.46
     538	  1.9997	 5.39333	         -4715.7	         3003.16	        -1712.54
     539	 2.00123	 5.37299	        -4718.02	         3005.44	        -1712.58
     540	 2.00114	 5.36018	        -4717.82	         3005.31	        -1712.51
     541	 2.00027	 5.35133	        -4716.37	         3004.01	        -1712.35
     542	 2.00026	 5.33914	        -4716.16	         3003.99	        -1712.17
     543	 2.00293	 5.31529	        -4720.04	            3008	        -1712.04
     544	 2.00943	 5.27466	         -4729.8	         3017.74	        -1712.05
     545	 2.01955	 5.21851	         -4745.1	         3032.92	        -1712.18
     546	 2.03189	 5.15368	         -4763.8	         3051.44	        -1712.36
     547	 2.04446	 5.08976	        -4782.85	          3070.3	        -1712.56
     548	 2.05523	  5.0365	        -4799.14	         3086.45	        -1712.69
     549	 2.06277	 5.00081	        -4810.47	         3097.75	        -1712.72
     550	 2.06663	 4.98472	        -4816.24	         3103.55	        -1712.69
     551	 2.06689	 4.98756	        -4816.64	         3103.93	        -1712.71
     552	 2.06342	 5.00956	        -4811.49	         3098.74	        -1712.75
     553	 2.05602	 5.05138	        -4800.38	         3087.63	        -1712.75
     554	 2.04496	 5.11109	         -4783.7	         3071.04	        -1712.66
     555	 2.03153	 5.18212	        -4763.35	          3050.9	        -1712.44
     556	 2.01831	 5.25199	        -4743.17	         3031.07	         -1712.1
     557	 2.00868	 5.30409	        -4728.48	         3016.62	        -1711.86
     558	 2.00479	 5.32759	        -4722.74	         3010.79	        -1711.95
     559	 2.00594	 5.32593	        -4724.69	         3012.51	        -1712.18
     560	 2.00982	 5.31034	        -4730.63	         3018.33	         -1712.3
     561	 2.01473	 5.28892	        -4737.99	          3025.7	        -1712.29
     562	 2.02003	 5.26496	        -4745.93	         3033.65	        -1712.28
     563	 2.02533	 5.24077	         -4753.9	          3041.6	         -1712.3
     564	 2.02998	  5.2199	        -4760.94	         3048.58	        -1712.36
     565	 2.03319	 5.20648	        -4765.83	         3053.39	        -1712.43
     566	  2.0341	 5.20468	        -4767.29	         3054.75	        -1712.54
     567	 2.03172	 5.21909	        -4763.84	         3051.18	        -1712.66
     568	 2.02525	 5.25354	        -4754.17	         3041.47	         -1712.7
     569	 2.01477	 5.30752	        -4738.37	         3025.76	         -1712.6
     570	 2.00169	 5.37423	        -4718.56	         3006.13	        -1712.43
     571	  1.9881	 5.44331	        -4698.08	         2985.75	        -1712.32
     572	 1.97561	 5.50691	        -4679.34	         2967.01	        -1712.33
     573	 1.96495	 5.56149	        -4663.32	         2951.03	        -1712.29
     574	 1.95703	 5.60267	         -4651.3	         2939.15	        -1712.15
     575	 1.95337	 5.62299	        -4645.68	         2933.66	        -1712.02
     576	  1.9551	 5.61694	        -4648.32	         2936.25	        -1712.07
     577	 1.96162	 5.58734	        -4658.32	         2946.04	        -1712.29
     578	 1.97069	 5.54509	        -4672.15	         2959.64	         -1712.5
     579	 1.97973	 5.50236	        -4685.86	          2973.2	        -1712.66
     580	 1.98664	 5.46883	        -4696.33	         2983.56	        -1712.77
     581	    1.99	 5.45117	        -4701.38	          2988.6	        -1712.78
     582	 1.98969	 5.45004	        -4700.74	         2988.13	        -1712.61
     583	 1.98728	 5.45808	        -4696.85	         2984.52	        -1712.33
     584	 1.98539	 5.46299	        -4693.79	         2981.69	         -1712.1
     585	 1.98604	 5.45527	        -4694.72	         2982.66	        -1712.07
     586	 1.98952	 5.43372	        -4700.04	         2987.88	        -1712.16
     587	 1.99479	 5.40339	        -4708.06	         2995.79	        -1712.27
     588	 2.00052	  5.3705	        -4716.73	         3004.38	        -1712.35
     589	 2.00555	 5.34032	        -4724.34	         3011.93	        -1712.41
     590	 2.00919	 5.31625	        -4729.77	         3017.38	        -1712.38
     591	 2.01159	 5.29782	        -4733.23	         3020.99	        -1712.24
     592	 2.01399	 5.27964	        -4736.67	         3024.58	        -1712.08
     593	  2.0175	 5.25637	        -4742.05	         3029.85	         -1712.2
     594	 2.02086	 5.23412	        -4747.52	         3034.89	        -1712.63
     595	 2.02025	 5.23136	        -4746.99	         3033.98	        -1713.01
     596	 2.01234	 5.26378	        -4735.22	         3022.11	         -1713.1
     597	 1.99673	 5.33299	        -4711.56	         2998.69	        -1712.87
     598	 1.97645	  5.4245	        -4680.68	         2968.27	        -1712.41
     599	 1.95681	  5.5129	        -4650.78	         2938.81	        -1711.96
     600	   1.943	 5.57365	        -4629.76	          2918.1	        -1711.66
     601	 1.93863	 5.58985	        -4623.04	         2911.55	        -1711.49
     602	 1.94521	 5.55408	        -4633.02	         2921.41	        -1711.61
     603	 1.96108	 5.47395	        -4657.29	         2945.23	        -1712.07
     604	 1.98134	 5.37299	        -4688.25	         2975.61	        -1712.65
     605	 1.99985	 5.28047	        -4716.45	         3003.38	        -1713.07
     606	 2.01205	 5.21836	        -4734.85	         3021.67	        -1713.18
     607	 2.01664	 5.19329	         -4741.5	         3028.56	        -1712.95
     608	 2.01576	 5.19559	        -4739.78	         3027.24	        -1712.54
     609	 2.01331	 5.20701	        -4735.83	         3023.56	        -1712.27
     610	   2.012	  5.2146	        -4733.94	          3021.6	        -1712.34
     611	 2.01167	 5.21921	        -4733.67	          3021.1	        -1712.57
     612	 2.01054	 5.22916	        -4732.11	         3019.41	         -1712.7
     613	 2.00746	 5.24937	        -4727.47	         3014.79	        -1712.67
     614	 2.00271	 5.27815	        -4720.22	         3007.67	        -1712.55
     615	 1.99746	 5.30965	        -4712.22	         2999.78	        -1712.44
     616	 1.99282	  5.3383	        -4705.23	         2992.84	         -1712.4
     617	  1.9893	 5.36183	        -4699.93	         2987.55	        -1712.39
     618	 1.98698	 5.37973	        -4696.46	         2984.07	        -1712.39
     619	 1.98569	 5.39266	        -4694.62	         2982.13	        -1712.49
     620	 1.98436	 5.40534	        -4692.85	         2980.14	         -1712.7
     621	 1.98115	 5.42655	        -4688.17	         2975.32	        -1712.85
     622	 1.97509	 5.46101	        -4678.92	         2966.24	        -1712.69
     623	  1.9679	 5.50073	        -4667.74	         2955.45	        -1712.29
     624	 1.96316	 5.52847	        -4660.39	         2948.34	        -1712.05
     625	   1.963	 5.53406	        -4660.33	          2948.1	        -1712.23
     626	  1.9662	 5.52399	         -4665.4	          2952.9	        -1712.49
     627	 1.97049	 5.50962	        -4671.88	         2959.34	        -1712.55
     628	 1.97489	 5.49545	        -4678.48	         2965.93	        -1712.54
     629	 1.97889	 5.48398	        -4684.59	         2971.93	        -1712.65
     630	 1.98111	 5.48196	        -4688.12	         2975.26	        -1712.86
     631	 1.97949	 5.49921	        -4685.84	         2972.84	           -1713
     632	  1.9728	 5.54154	        -4675.72	          2962.8	        -1712.92
     633	 1.96229	 5.60313	        -4659.52	         2947.04	        -1712.48
     634	 1.95246	 5.66274	        -4644.17	          2932.3	        -1711.87
     635	 1.94878	  5.6936	        -4638.44	         2926.77	        -1711.67
     636	 1.95294	 5.68701	        -4645.04	         2933.01	        -1712.04
     637	 1.96162	 5.65871	        -4658.51	         2946.04	        -1712.48
     638	 1.97019	 5.62994	         -4671.6	         2958.89	        -1712.71
     639	 1.97566	 5.61384	        -4679.87	          2967.1	        -1712.78
     640	 1.97692	 5.61496	        -4681.76	         2968.99	        -1712.77
     641	 1.97395	 5.63294	        -4677.25	         2964.53	        -1712.72
     642	 1.96765	 5.66342	        -4667.59	         2955.07	        -1712.52
     643	 1.96049	 5.69467	        -4656.48	         2944.34	        -1712.14
     644	 1.95621	 5.70882	        -4649.79	         2937.92	        -1711.87
     645	 1.95744	 5.69357	        -4651.64	         2939.76	        -1711.88
     646	 1.96408	 5.65001	         -4661.8	         2949.72	        -1712.09
     647	 1.97395	 5.58904	        -4676.88	         2964.52	        -1712.36
     648	 1.98417	  5.5251	         -4692.4	         2979.85	        -1712.55
     649	 1.99252	 5.46951	        -4704.98	         2992.39	         -1712.6
     650	 1.99804	 5.42759	        -4713.26	         3000.65	        -1712.61
     651	  2.0003	 5.40175	        -4716.72	         3004.05	        -1712.66
     652	 1.99892	 5.39448	        -4714.68	         3001.98	         -1712.7
     653	   1.994	  5.4057	         -4707.2	          2994.6	         -1712.6
     654	 1.98711	 5.42825	        -4696.59	         2984.26	        -1712.32
     655	 1.98143	 5.44731	        -4687.71	         2975.75	        -1711.96
     656	 1.98054	 5.44565	        -4686.25	         2974.42	        -1711.83
     657	 1.98561	 5.41698	        -4694.18	         2982.02	        -1712.16
     658	  1.9938	 5.37458	        -4706.92	          2994.3	        -1712.62
     659	 2.00097	 5.33784	        -4717.83	         3005.05	        -1712.78
     660	 2.00526	 5.31491	        -4724.14	          3011.5	        -1712.65
     661	 2.00771	 5.30069	        -4727.54	         3015.17	        -1712.37
     662	 2.01059	 5.28428	         -4731.7	         3019.49	        -1712.21
     663	 2.01518	 5.25969	        -4738.65	         3026.37	        -1712.28
     664	 2.02067	 5.23112	        -4747.06	         3034.61	        -1712.45
     665	 2.02528	 5.20751	        -4754.07	         3041.52	        -1712.55
     666	 2.02777	   5.195	         -4757.8	         3045.26	        -1712.54
     667	 2.02793	 5.19488	        -4758.01	          3045.5	        -1712.51
     668	 2.02588	 5.20672	        -4754.96	         3042.42	        -1712.54
     669	 2.02128	 5.23204	        -4748.16	         3035.52	        -1712.63
     670	  2.0135	 5.27379	        -4736.54	         3023.85	        -1712.69
     671	 2.00245	  5.3322	        -4719.87	         3007.28	        -1712.58
     672	 1.98964	 5.39998	        -4700.39	         2988.07	        -1712.32
     673	 1.97784	 5.46341	         -4682.5	         2970.37	        -1712.14
     674	 1.96905	 5.51237	         -4669.4	         2957.17	        -1712.23
     675	 1.96295	 5.54798	        -4660.48	         2948.02	        -1712.46
     676	 1.95792	  5.5776	        -4653.07	         2940.48	         -1712.6
     677	 1.95291	 5.60556	        -4645.58	         2932.97	        -1712.61
     678	   1.948	 5.63111	        -4638.15	          2925.6	        -1712.56
     679	 1.94393	 5.65051	        -4631.95	          2919.5	        -1712.45
     680	  1.9419	  5.6581	        -4628.78	         2916.46	        -1712.32
     681	 1.94314	 5.64817	        -4630.54	         2918.31	        -1712.22
     682	 1.94852	 5.61687	        -4638.56	         2926.38	        -1712.18
     683	 1.95818	 5.56388	        -4653.12	         2940.87	        -1712.25
     684	 1.97112	 5.49451	        -4672.71	         2960.28	        -1712.43
     685	 1.98537	 5.41898	        -4694.24	         2981.65	        -1712.59
     686	 1.99891	 5.34753	        -4714.67	         3001.97	         -1712.7
     687	 2.01022	 5.28793	        -4731.72	         3018.93	        -1712.79
     688	 2.01805	 5.24649	        -4743.55	         3030.68	        -1712.87
     689	 2.02133	 5.22842	        -4748.57	          3035.6	        -1712.97
     690	 2.01916	 5.23793	        -4745.36	         3032.34	        -1713.02
     691	 2.01133	 5.27582	        -4733.51	         3020.59	        -1712.92
     692	 1.99932	  5.3349	         -4715.2	         3002.58	        -1712.62
     693	 1.98642	 5.39922	        -4695.51	         2983.23	        -1712.28
     694	 1.97623	 5.45105	         -4680.1	         2967.95	        -1712.14
     695	 1.97059	 5.48121	        -4671.75	         2959.48	        -1712.26
     696	 1.96902	 5.49171	        -4669.55	         2957.14	        -1712.41
     697	 1.97042	 5.48752	        -4671.69	         2959.22	        -1712.46
     698	 1.97404	 5.47153	         -4677.2	         2964.67	        -1712.53
     699	 1.97908	 5.44765	        -4684.85	         2972.22	        -1712.63
     700	 1.98433	 5.42191	        -4692.78	         2980.09	        -1712.69
     701	 1.98897	 5.39872	        -4699.71	         2987.06	        -1712.65
     702	   1.993	  5.3786	        -4705.68	          2993.1	        -1712.58
     703	 1.99675	 5.36026	        -4711.31	         2998.72	        -1712.59
     704	 1.99997	 5.34502	        -4716.28	         3003.56	        -1712.72
     705	 2.00164	 5.33809	        -4718.89	         3006.07	        -1712.82
     706	 2.00109	 5.34291	        -4718.02	         3005.24	        -1712.78
     707	 1.99886	 5.35676	        -4714.58	         3001.89	        -1712.69
     708	 1.99598	 5.37464	        -4710.26	         2997.57	        -1712.68
     709	 1.99286	 5.39463	        -4705.64	         2992.89	        -1712.74
     710	 1.98927	 5.41786	        -4700.29	         2987.51	        -1712.78
     711	 1.98515	 5.44453	        -4694.08	         2981.33	        -1712.75
     712	 1.98087	 5.47261	        -4687.63	         2974.91	        -1712.72
     713	 1.97692	 5.49965	        -4681.67	         2968.98	        -1712.69
     714	 1.97374	 5.52326	        -4676.87	         2964.21	        -1712.66
     715	 1.97164	 5.54147	        -4673.71	         2961.07	        -1712.64
     716	 1.97084	 5.55295	        -4672.41	         2959.86	        -1712.55
     717	 1.97198	 5.55421	        -4673.96	         2961.56	         -1712.4
     718	 1.97593	 5.54048	        -4679.84	          2967.5	        -1712.35
     719	 1.98275	 5.51131	        -4690.14	         2977.73	        -1712.41
     720	  1.9915	 5.47134	        -4703.32	         2990.85	        -1712.47
     721	 2.00123	 5.42522	         -4717.9	         3005.45	        -1712.45
     722	 2.01165	 5.37457	        -4733.48	         3021.08	        -1712.41
     723	 2.02254	 5.32057	        -4749.88	         3037.42	        -1712.46
     724	 2.03289	 5.26837	        -4765.54	         3052.94	        -1712.61
     725	 2.04094	 5.22674	        -4777.71	         3065.01	         -1712.7
     726	 2.04542	   5.202	        -4784.37	         3071.73	        -1712.64
     727	 2.04647	 5.19359	        -4785.79	         3073.31	        -1712.48
     728	 2.04538	 5.19563	        -4783.98	         3071.67	        -1712.31
     729	 2.04355	 5.20139	        -4781.17	         3068.93	        -1712.24
     730	 2.04165	 5.20786	        -4778.35	         3066.08	        -1712.28
     731	 2.03958	 5.21572	        -4775.26	         3062.98	        -1712.28
     732	 2.03741	 5.22483	        -4771.96	         3059.71	        -1712.25
     733	 2.03547	 5.23349	         -4769.1	         3056.81	        -1712.28
     734	 2.03352	 5.24291	        -4766.35	         3053.88	        -1712.47
     735	 2.03015	 5.25978	        -4761.52	         3048.83	        -1712.69
     736	 2.02386	 5.29144	        -4752.13	         3039.39	        -1712.74
     737	 2.01477	 5.33753	        -4738.28	         3025.75	        -1712.53
     738	 2.00519	 5.38716	        -4723.63	         3011.39	        -1712.24
     739	 1.99797	 5.42667	        -4712.76	         3000.55	        -1712.21
     740	 1.99361	 5.45348	        -4706.53	         2994.02	        -1712.51
     741	 1.98988	  5.4786	        -4701.17	         2988.42	        -1712.74
     742	 1.98466	 5.51191	        -4693.31	         2980.59	        -1712.72
     743	 1.97766	 5.55382	        -4682.75	         2970.09	        -1712.66
     744	 1.96919	 5.60224	        -4670.05	         2957.39	        -1712.66
     745	 1.95937	 5.65621	        -4655.24	         2942.66	        -1712.58
     746	 1.94907	 5.71105	        -4639.56	         2927.21	        -1712.35
     747	 1.94057	 5.75544	         -4626.5	         2914.45	        -1712.04
     748	 1.93696	 5.77449	        -4620.81	         2909.04	        -1711.78
     749	 1.94079	 5.75621	        -4626.49	         2914.79	         -1711.7
     750	 1.95256	 5.69856	        -4644.36	         2932.44	        -1711.92
     751	 1.96983	 5.61365	         -4670.7	         2958.35	        -1712.36
     752	 1.98797	 5.52416	        -4698.35	         2985.56	        -1712.79
     753	 2.00225	 5.45306	        -4720.03	         3006.98	        -1713.05
     754	 2.00967	 5.41507	        -4731.16	          3018.1	        -1713.06
     755	 2.00994	  5.4121	        -4731.31	         3018.51	        -1712.79
     756	  2.0056	 5.43251	         -4724.4	            3012	         -1712.4
     757	 2.00018	 5.45909	        -4716.13	         3003.86	        -1712.27
     758	 1.99513	 5.48447	        -4708.74	         2996.29	        -1712.44
     759	  1.9894	 5.51372	        -4700.25	          2987.7	        -1712.56
     760	 1.98218	 5.55013	        -4689.32	         2976.87	        -1712.45
     761	  1.9745	 5.58818	        -4677.62	         2965.35	        -1712.27
     762	 1.96835	 5.61829	        -4668.26	         2956.13	        -1712.14
     763	 1.96531	  5.6329	        -4663.69	         2951.57	        -1712.12
     764	 1.96583	 5.62991	        -4664.58	         2952.34	        -1712.24
     765	  1.9687	 5.61446	         -4669.2	         2956.65	        -1712.55
     766	 1.97107	 5.59988	        -4673.08	          2960.2	        -1712.88
     767	 1.97004	 5.59989	         -4671.6	         2958.66	        -1712.93
     768	 1.96521	 5.61647	        -4664.07	         2951.41	        -1712.66
     769	 1.95931	 5.63677	        -4654.79	         2942.57	        -1712.23
     770	 1.95645	 5.64142	        -4650.25	         2938.28	        -1711.98
     771	  1.9591	  5.6189	        -4654.33	         2942.26	        -1712.08
     772	 1.96663	 5.57276	         -4665.9	         2953.54	        -1712.36
     773	 1.97643	 5.51559	        -4680.85	         2968.25	         -1712.6
     774	 1.98606	 5.45928	        -4695.37	         2982.69	        -1712.68
     775	 1.99431	 5.40978	        -4707.69	         2995.07	        -1712.62
     776	 2.00143	 5.36643	        -4718.22	         3005.75	        -1712.48
     777	 2.00819	 5.32574	        -4728.34	         3015.89	        -1712.45
     778	 2.01446	  5.2886	        -4737.89	          3025.3	        -1712.59
     779	 2.01873	 5.26262	        -4744.45	          3031.7	        -1712.76
     780	 2.01932	 5.25594	        -4745.36	         3032.58	        -1712.79
     781	 2.01581	 5.27047	           -4740	         3027.32	        -1712.68
     782	 2.00915	 5.30147	        -4729.88	         3017.33	        -1712.55
     783	 2.00077	 5.34205	        -4717.21	         3004.75	        -1712.46
     784	 1.99202	 5.38576	        -4703.99	         2991.64	        -1712.35
     785	 1.98439	 5.42536	        -4692.46	         2980.19	        -1712.28
     786	 1.97879	 5.45565	        -4684.18	         2971.79	        -1712.39
     787	 1.97481	 5.47842	        -4678.27	         2965.81	        -1712.46
     788	 1.97246	 5.49378	         -4674.5	         2962.29	        -1712.21
     789	 1.97398	 5.49071	        -4676.53	         2964.57	        -1711.96
     790	 1.98087	 5.46111	        -4687.19	         2974.91	        -1712.28
     791	 1.99004	 5.42019	        -4701.48	         2988.66	        -1712.82
     792	 1.99636	 5.39252	        -4711.16	         2998.14	        -1713.01
     793	 1.99739	 5.38912	        -4712.52	         2999.68	        -1712.84
     794	 1.99439	  5.4036	        -4707.65	         2995.18	        -1712.47
     795	 1.99063	 5.42024	        -4701.75	         2989.55	        -1712.19
     796	 1.98875	 5.42653	         -4698.9	         2986.73	        -1712.17
     797	 1.98923	 5.42045	        -4699.73	         2987.45	        -1712.28
     798	 1.99128	 5.40612	        -4702.86	         2990.52	        -1712.34
     799	  1.9941	 5.38726	        -4707.14	         2994.75	        -1712.38
     800	 1.99713	 5.36672	        -4711.74	          2999.3	        -1712.44
     801	 1.99978	 5.34758	        -4715.78	         3003.28	         -1712.5
     802	 2.00148	 5.33273	        -4718.39	         3005.82	        -1712.57
     803	  2.0016	 5.32515	        -4718.67	            3006	        -1712.67
     804	 1.99959	 5.32788	        -4715.64	         3002.98	        -1712.66
     805	 1.99606	 5.33872	        -4710.08	         2997.69	        -1712.39
     806	 1.99359	 5.34567	        -4706.07	         2993.99	        -1712.08
     807	  1.9947	  5.3366	        -4707.76	         2995.65	        -1712.11
     808	 1.99908	 5.31335	        -4714.59	         3002.22	        -1712.38
     809	 2.00405	 5.28891	         -4722.3	         3009.68	        -1712.62
     810	 2.00685	 5.27623	        -4726.62	         3013.88	        -1712.75
     811	 2.00596	 5.28239	        -4725.27	         3012.54	        -1712.73
     812	 2.00131	 5.30761	        -4718.19	         3005.56	        -1712.63
     813	 1.99399	 5.34666	        -4707.03	         2994.58	        -1712.45
     814	 1.98592	 5.39035	        -4694.69	         2982.48	        -1712.21
     815	 1.97959	  5.4267	        -4684.98	         2972.98	        -1711.99
     816	  1.9772	  5.4449	        -4681.32	          2969.4	        -1711.93
     817	 1.97958	 5.44082	        -4684.98	         2972.97	        -1712.01
     818	 1.98605	 5.41765	        -4694.85	         2982.67	        -1712.18
     819	 1.99479	 5.38357	        -4708.21	         2995.79	        -1712.42
     820	 2.00319	 5.35081	        -4721.06	         3008.39	        -1712.66
     821	 2.00866	 5.33161	        -4729.35	         3016.58	        -1712.76
     822	  2.0098	 5.33225	        -4731.02	          3018.3	        -1712.72
     823	 2.00681	 5.35176	        -4726.38	         3013.82	        -1712.56
     824	 2.00119	 5.38315	        -4717.69	         3005.38	        -1712.31
     825	 1.99538	 5.41488	        -4708.71	         2996.67	        -1712.04
     826	 1.99196	 5.43477	        -4703.43	         2991.54	        -1711.89
     827	 1.99239	 5.43586	        -4704.11	         2992.19	        -1711.92
     828	 1.99655	  5.4188	        -4710.48	         2998.42	        -1712.06
     829	 2.00314	 5.38961	        -4720.54	         3008.32	        -1712.23
     830	 2.01053	 5.35595	        -4731.77	          3019.4	        -1712.37
     831	 2.01735	 5.32411	        -4742.09	         3029.63	        -1712.46
     832	  2.0228	 5.29784	        -4750.29	          3037.8	         -1712.5
     833	 2.02676	 5.27779	        -4756.19	         3043.75	        -1712.44
     834	 2.03005	 5.26047	        -4761.02	         3048.68	        -1712.34
     835	 2.03376	 5.24088	        -4766.57	         3054.24	        -1712.32
     836	 2.03831	 5.21767	        -4773.41	         3061.07	        -1712.34
     837	 2.04349	 5.19222	        -4781.24	         3068.84	         -1712.4
     838	 2.04846	 5.16859	        -4788.84	         3076.29	        -1712.55
     839	 2.05159	 5.15463	        -4793.66	         3080.99	        -1712.67
     840	 2.05157	 5.15659	        -4793.61	         3080.96	        -1712.65
     841	 2.04828	 5.17451	        -4788.56	         3076.03	        -1712.54
     842	 2.04274	 5.20318	        -4780.06	         3067.71	        -1712.34
     843	 2.03688	 5.23303	        -4771.03	         3058.92	         -1712.1
     844	 2.03298	 5.25266	        -4765.04	         3053.08	        -1711.96
     845	  2.0324	 5.25513	        -4764.23	          3052.2	        -1712.02
     846	 2.03477	 5.24209	        -4767.96	         3055.75	        -1712.21
     847	  2.0388	 5.22019	        -4774.05	          3061.8	        -1712.26
     848	  2.0444	 5.19084	        -4782.24	         3070.21	        -1712.04
     849	 2.05323	 5.14654	        -4795.39	         3083.45	        -1711.95
     850	 2.06545	 5.08672	        -4814.09	         3101.77	        -1712.31
     851	 2.07749	  5.0294	         -4832.6	         3119.84	        -1712.76
     852	 2.08491	  4.9964	        -4843.87	         3130.97	        -1712.89
     853	 2.08571	 4.99694	        -4844.98	         3132.17	        -1712.81
     854	 2.08006	 5.02967	        -4836.46	          3123.7	        -1712.76
     855	 2.06849	 5.09195	        -4819.07	         3106.34	        -1712.73
     856	 2.05176	 5.17984	        -4793.83	         3081.25	        -1712.58
     857	 2.03194	 5.28301	         -4763.8	         3051.52	        -1712.28
     858	 2.01249	  5.3844	        -4734.26	         3022.33	        -1711.93
     859	 1.99722	 5.46518	        -4711.15	         2999.43	        -1711.71
     860	 1.98847	 5.51358	        -4698.11	         2986.31	         -1711.8
     861	 1.98576	 5.53149	        -4694.32	         2982.24	        -1712.08
     862	 1.98658	 5.53058	        -4695.81	         2983.47	        -1712.34
     863	 1.98847	 5.52239	        -4698.74	          2986.3	        -1712.44
     864	 1.99022	 5.51255	        -4701.35	         2988.93	        -1712.42
     865	 1.99191	 5.50095	         -4703.8	         2991.46	        -1712.34
     866	 1.99421	 5.48464	        -4707.22	         2994.92	         -1712.3
     867	 1.99756	 5.46192	        -4712.31	         2999.94	        -1712.37
     868	  2.0013	 5.43606	        -4718.13	         3005.55	        -1712.58
     869	 2.00375	 5.41553	        -4721.98	         3009.23	        -1712.75
     870	 2.00364	 5.40717	        -4721.72	         3009.06	        -1712.66
     871	 2.00183	 5.40731	        -4718.73	         3006.34	        -1712.38
     872	 2.00062	 5.40519	        -4716.75	         3004.53	        -1712.22
     873	 2.00143	  5.3945	        -4717.99	         3005.74	        -1712.24
     874	 2.00388	 5.37718	        -4721.81	         3009.43	        -1712.39
     875	 2.00648	 5.36031	        -4725.86	         3013.32	        -1712.54
     876	 2.00773	 5.35087	        -4727.78	          3015.2	        -1712.59
     877	 2.00706	 5.35132	        -4726.75	          3014.2	        -1712.55
     878	 2.00483	 5.35982	        -4723.33	         3010.85	        -1712.47
     879	 2.00205	 5.37161	        -4719.02	         3006.68	        -1712.34
     880	 2.00013	 5.37972	        -4716.03	          3003.8	        -1712.22
     881	 2.00027	 5.37815	        -4716.21	         3004.01	         -1712.2
     882	  2.0028	   5.365	        -4720.05	          3007.8	        -1712.25
     883	 2.00717	 5.34229	        -4726.72	         3014.36	        -1712.36
     884	 2.01231	  5.3148	        -4734.54	         3022.06	        -1712.47
     885	 2.01702	 5.28789	        -4741.65	         3029.14	        -1712.51
     886	 2.02081	 5.26392	        -4747.27	         3034.81	        -1712.46
     887	 2.02401	 5.24115	        -4751.98	         3039.61	        -1712.37
     888	 2.02736	 5.21615	        -4756.95	         3044.64	        -1712.32
     889	 2.03134	 5.18678	        -4762.94	         3050.62	        -1712.32
     890	 2.03602	 5.15315	        -4769.95	         3057.63	        -1712.32
     891	 2.04133	 5.11587	        -4777.91	         3065.59	        -1712.31
     892	 2.04708	 5.07586	         -4786.6	         3074.23	        -1712.37
     893	 2.05263	 5.03652	        -4794.99	         3082.55	        -1712.44
     894	 2.05727	 5.00163	        -4801.92	          3089.5	        -1712.42
     895	 2.06116	 4.97071	        -4807.62	         3095.34	        -1712.28
     896	 2.06545	 4.93865	        -4813.92	         3101.78	        -1712.14
     897	 2.07125	 4.90041	        -4822.62	         3110.48	        -1712.14
     898	 2.07837	 4.85716	        -4833.47	         3121.15	        -1712.32
     899	 2.08503	 4.81754	        -4843.68	         3131.15	        -1712.54
     900	 2.08904	 4.79213	        -4849.83	         3137.17	        -1712.66
     901	  2.0891	  4.7873	        -4849.88	         3137.25	        -1712.63
     902	 2.08538	 4.80231	        -4844.17	         3131.68	         -1712.5
     903	 2.07912	 4.83145	        -4834.67	         3122.29	        -1712.38
     904	  2.0715	 4.86922	         -4823.2	         3110.85	        -1712.35
     905	 2.06298	 4.91335	        -4810.45	         3098.08	        -1712.37
     906	 2.05363	 4.96335	        -4796.43	         3084.05	        -1712.38
     907	 2.04354	 5.01827	        -4781.27	         3068.91	        -1712.36
     908	 2.03317	 5.07546	        -4765.63	         3053.35	        -1712.28
     909	 2.02359	 5.12943	        -4751.12	         3038.98	        -1712.14
     910	 2.01642	 5.17216	        -4740.21	         3028.23	        -1711.98
     911	 2.01343	 5.19516	         -4735.6	         3023.75	        -1711.85
     912	 2.01593	 5.19218	        -4739.34	         3027.49	        -1711.85
     913	 2.02361	 5.16426	        -4751.15	         3039.01	        -1712.14
     914	 2.03348	 5.12546	        -4766.44	         3053.82	        -1712.63
     915	 2.04089	 5.09795	        -4777.89	         3064.94	        -1712.95
     916	  2.0426	 5.09704	        -4780.44	          3067.5	        -1712.94
     917	 2.03854	 5.12277	        -4774.07	         3061.41	        -1712.66
     918	 2.03143	 5.16227	        -4763.01	         3050.75	        -1712.26
     919	  2.0253	 5.19675	        -4753.49	         3041.56	        -1711.93
     920	 2.02334	 5.21102	        -4750.54	         3038.61	        -1711.92
     921	  2.0256	 5.20468	        -4754.31	            3042	        -1712.31
     922	 2.02869	 5.19401	        -4759.36	         3046.64	        -1712.72
     923	 2.02891	  5.1968	        -4759.77	         3046.97	         -1712.8
     924	 2.02533	 5.21721	        -4754.22	         3041.59	        -1712.63
     925	 2.01932	 5.24825	        -4745.09	         3032.59	        -1712.51
     926	 2.01223	 5.28364	        -4734.48	         3021.94	        -1712.53
     927	 2.00429	 5.32236	        -4722.65	         3010.04	        -1712.61
     928	 1.99545	  5.3648	        -4709.39	         2996.78	        -1712.61
     929	  1.9864	 5.40781	        -4695.65	          2983.2	        -1712.46
     930	 1.97929	  5.4415	        -4684.67	         2972.53	        -1712.14
     931	 1.97753	 5.44987	        -4681.78	         2969.89	        -1711.88
     932	 1.98338	 5.42176	        -4690.73	         2978.67	        -1712.07
     933	 1.99516	  5.3653	         -4708.9	         2996.33	        -1712.56
     934	 2.00815	 5.30313	         -4728.8	         3015.83	        -1712.97
     935	 2.01813	 5.25529	        -4743.89	          3030.8	        -1713.09
     936	 2.02348	 5.22936	        -4751.79	         3038.83	        -1712.97
     937	 2.02488	 5.22198	        -4753.76	         3040.92	        -1712.84
     938	 2.02339	 5.22799	        -4751.53	         3038.69	        -1712.84
     939	 2.01934	 5.24609	        -4745.45	         3032.61	        -1712.84
     940	 2.01341	 5.27335	        -4736.33	         3023.72	        -1712.61
     941	 2.00818	 5.29779	        -4728.08	         3015.88	         -1712.2
     942	 2.00752	 5.30089	         -4726.8	         3014.88	        -1711.93
     943	 2.01366	 5.27163	        -4736.17	         3024.09	        -1712.08
     944	 2.02506	 5.21757	        -4753.66	         3041.19	        -1712.47
     945	 2.03766	 5.15797	        -4772.89	          3060.1	         -1712.8
     946	 2.04781	 5.11012	        -4788.26	         3075.32	        -1712.94
     947	  2.0535	 5.08339	        -4796.81	         3083.85	        -1712.96
     948	 2.05398	 5.08132	        -4797.52	         3084.58	        -1712.95
     949	 2.04932	 5.10404	        -4790.41	         3077.58	        -1712.83
     950	 2.04058	 5.14661	        -4777.12	         3064.48	        -1712.64
     951	 2.02956	 5.20041	        -4760.46	         3047.95	        -1712.51
     952	 2.01779	 5.25828	        -4742.71	         3030.28	        -1712.43
     953	 2.00652	 5.31435	        -4725.67	         3013.38	        -1712.29
     954	 1.99735	 5.36084	        -4711.78	         2999.63	        -1712.16
     955	 1.99157	 5.39099	        -4703.13	         2990.95	        -1712.17
     956	 1.98923	 5.40432	        -4699.71	         2987.45	        -1712.26
     957	 1.98977	 5.40346	        -4700.52	         2988.26	        -1712.26
     958	 1.99305	 5.38878	        -4705.43	         2993.18	        -1712.25
     959	 1.99885	 5.36109	        -4714.26	         3001.88	        -1712.38
     960	 2.00569	 5.32762	        -4724.76	         3012.14	        -1712.62
     961	 2.01121	 5.30003	        -4733.19	         3020.41	        -1712.78
     962	 2.01353	 5.28734	        -4736.71	         3023.89	        -1712.82
     963	 2.01207	 5.29244	        -4734.47	         3021.71	        -1712.76
     964	 2.00742	 5.31276	        -4727.36	         3014.74	        -1712.63
     965	 2.00117	  5.3412	        -4717.73	         3005.36	        -1712.37
     966	   1.996	 5.36546	        -4709.65	          2997.6	        -1712.05
     967	 1.99467	  5.3722	         -4707.6	          2995.6	           -1712
     968	 1.99738	 5.36021	        -4711.99	         2999.67	        -1712.32
     969	 2.00096	 5.34463	        -4717.78	         3005.05	        -1712.73
     970	 2.00131	 5.34451	        -4718.53	         3005.57	        -1712.96
     971	 1.99609	 5.37045	        -4710.63	         2997.74	        -1712.88
     972	 1.98624	 5.41789	        -4695.44	         2982.96	        -1712.49
     973	 1.97582	 5.46748	        -4679.29	         2967.34	        -1711.96
     974	 1.97014	  5.4942	        -4670.43	         2958.81	        -1711.62
     975	 1.97243	 5.48253	        -4674.03	         2962.25	        -1711.78
     976	 1.98137	 5.43879	           -4688	         2975.66	        -1712.34
     977	 1.99199	 5.38705	        -4704.42	         2991.58	        -1712.84
     978	 1.99954	  5.3499	        -4715.89	         3002.91	        -1712.97
     979	 2.00241	  5.3351	        -4720.04	         3007.21	        -1712.83
     980	 2.00163	 5.33768	        -4718.72	         3006.05	        -1712.67
     981	 1.99865	 5.35082	        -4714.28	         3001.58	         -1712.7
     982	 1.99341	 5.37458	        -4706.59	         2993.72	        -1712.87
     983	 1.98506	 5.41321	        -4694.01	         2981.19	        -1712.82
     984	 1.97478	 5.46111	        -4678.11	         2965.78	        -1712.34
     985	  1.9675	 5.49488	        -4666.53	         2954.86	        -1711.68
     986	 1.96924	 5.48556	         -4668.9	         2957.46	        -1711.44
     987	 1.98185	 5.42419	        -4688.28	         2976.38	         -1711.9
     988	 2.00093	 5.33243	        -4717.57	            3005	        -1712.56
     989	 2.01973	 5.24288	        -4746.13	         3033.19	        -1712.94
     990	 2.03357	  5.1775	        -4766.99	         3053.95	        -1713.03
     991	 2.04063	 5.14496	        -4777.56	         3064.55	        -1713.01
     992	  2.0408	 5.14605	        -4777.71	          3064.8	        -1712.91
     993	  2.0351	  5.1759	        -4768.97	         3056.25	        -1712.72
     994	 2.02567	 5.22405	        -4754.58	          3042.1	        -1712.48
     995	 2.01535	 5.27648	        -4738.84	         3026.63	        -1712.21
     996	 2.00721	 5.31827	        -4726.39	         3014.42	        -1711.97
     997	 2.00387	 5.33646	        -4721.28	         3009.41	        -1711.86
     998	 2.00629	 5.32604	        -4725.08	         3013.04	        -1712.04
     999	 2.01274	 5.29525	         -4735.1	         3022.72	        -1712.38
