    Step 	 temperature 	 pressure 	 Potential Energy 	 Kinetic Energy 	 Sum Energy

       0	 1.58373	0.0644335	         -650.63	          2376.5	         1725.87
       1	 1.58386	0.0643961	        -650.822	         2376.69	         1725.87
       2	 1.58424	0.0642851	        -651.395	         2377.26	         1725.87
       3	 1.58488	0.0641007	        -652.351	         2378.22	         1725.87
       4	 1.58577	0.0638435	         -653.69	         2379.56	         1725.87
       5	 1.58692	0.0635139	        -655.417	         2381.29	         1725.87
       6	 1.58834	0.0631129	        -657.535	          2383.4	         1725.87
       7	 1.59001	0.0626416	        -660.049	         2385.92	         1725.87
       8	 1.59196	0.0621018	        -662.966	         2388.84	         1725.87
       9	 1.59418	0.0614957	        -666.292	         2392.16	         1725.87
      10	 1.59667	0.0608264	        -670.034	         2395.91	         1725.87
      11	 1.59945	0.0600984	        -674.201	         2400.07	         1725.87
      12	 1.60252	0.0593173	          -678.8	         2404.67	         1725.87
      13	 1.60588	0.0584915	        -683.839	         2409.71	         1725.87
      14	 1.60953	0.057632	        -689.324	          2415.2	         1725.87
      15	 1.61349	0.0567542	        -695.257	         2421.13	         1725.87
      16	 1.61774	0.0558794	        -701.637	         2427.51	         1725.87
      17	 1.62228	0.0550372	        -708.455	         2434.33	         1725.87
      18	 1.62711	0.0542692	        -715.691	         2441.56	         1725.87
      19	 1.63218	0.0536333	        -723.304	         2449.16	         1725.86
      20	 1.63745	0.0532109	        -731.227	         2457.08	         1725.85
      21	 1.64286	0.0531151	        -739.352	         2465.19	         1725.84
      22	 1.64829	0.0535009	        -747.517	         2473.34	         1725.82
      23	 1.65359	0.0545722	        -755.489	         2481.28	         1725.79
      24	 1.65855	0.0565765	        -762.969	         2488.73	         1725.76
      25	 1.66298	0.0597665	        -769.635	         2495.37	         1725.73
      26	 1.66673	0.0642987	        -775.276	            2501	         1725.72
      27	 1.66991	0.0700681	        -780.016	         2505.76	         1725.75
      28	 1.67291	0.0765931	        -784.475	         2510.27	         1725.79
      29	  1.6763	0.0831985	        -789.537	         2515.35	         1725.81
      30	 1.68034	0.0895438	         -795.64	          2521.4	         1725.76
      31	 1.68472	0.095975	        -802.304	         2527.98	         1725.68
      32	  1.6888	0.103257	         -808.49	          2534.1	         1725.61
      33	 1.69194	0.112076	        -813.255	         2538.81	         1725.56
      34	  1.6938	0.122808	        -816.056	          2541.6	         1725.54
      35	 1.69429	0.135474	        -816.786	         2542.34	         1725.55
      36	 1.69368	 0.14971	         -815.82	         2541.41	         1725.59
      37	 1.69251	0.164777	        -814.007	         2539.66	         1725.66
      38	 1.69155	0.179699	          -812.5	         2538.22	         1725.72
      39	 1.69153	0.193513	        -812.438	          2538.2	         1725.76
      40	 1.69296	0.205565	        -814.577	         2540.34	         1725.76
      41	 1.69592	 0.21569	        -819.047	         2544.77	         1725.72
      42	  1.7001	0.224202	        -825.377	         2551.04	         1725.67
      43	 1.70498	 0.23169	        -832.759	         2558.37	         1725.61
      44	 1.71005	0.238752	        -840.396	         2565.98	         1725.58
      45	 1.71497	0.245782	        -847.779	         2573.35	         1725.57
      46	 1.71967	 0.25287	        -854.804	          2580.4	         1725.59
      47	  1.7243	0.259836	        -861.724	         2587.35	         1725.63
      48	 1.72915	0.266368	        -868.974	         2594.62	         1725.65
      49	 1.73445	0.272201	        -876.919	         2602.57	         1725.65
      50	 1.74023	  0.2773	        -885.624	         2611.25	         1725.63
      51	 1.74625	0.281963	        -894.708	         2620.27	         1725.57
      52	 1.75198	0.286789	        -903.377	         2628.87	         1725.49
      53	 1.75684	 0.29245	        -910.715	         2636.16	         1725.44
      54	  1.7605	0.299311	        -916.192	         2641.65	         1725.45
      55	 1.76324	0.307025	        -920.209	         2645.75	         1725.54
      56	 1.76604	0.314399	        -924.293	         2649.96	         1725.67
      57	 1.77017	0.319924	         -930.42	         2656.16	         1725.74
      58	 1.77623	0.322847	        -939.568	         2665.25	         1725.68
      59	  1.7837	0.323802	        -950.891	         2676.45	         1725.55
      60	 1.79138	0.324222	        -962.502	         2687.97	         1725.46
      61	 1.79828	0.325288	        -972.876	         2698.32	         1725.44
      62	   1.804	0.327477	        -981.439	          2706.9	         1725.46
      63	 1.80857	0.330759	        -988.278	         2713.76	         1725.48
      64	 1.81213	0.334974	        -993.614	          2719.1	         1725.48
      65	 1.81475	0.340031	         -997.54	         2723.02	         1725.48
      66	 1.81647	0.345839	        -1000.12	         2725.61	         1725.49
      67	 1.81752	0.352106	        -1001.65	         2727.18	         1725.53
      68	 1.81835	0.358234	        -1002.85	         2728.43	         1725.58
      69	 1.81959	 0.36346	        -1004.66	         2730.28	         1725.62
      70	 1.82167	0.367198	        -1007.79	         2733.41	         1725.62
      71	 1.82467	0.369351	        -1012.33	          2737.9	         1725.57
      72	 1.82821	0.370338	        -1017.71	         2743.21	          1725.5
      73	 1.83175	0.370794	        -1023.07	         2748.53	         1725.46
      74	 1.83496	0.371139	        -1027.88	         2753.34	         1725.46
      75	 1.83798	0.371231	        -1032.35	         2757.87	         1725.52
      76	 1.84139	0.370416	        -1037.42	         2762.99	         1725.57
      77	  1.8457	0.368128	        -1043.87	         2769.45	         1725.58
      78	   1.851	0.364329	        -1051.84	          2777.4	         1725.57
      79	 1.85708	0.359325	        -1060.97	         2786.52	         1725.55
      80	 1.86362	0.353533	         -1070.8	         2796.33	         1725.53
      81	 1.87025	0.347465	        -1080.76	         2806.27	         1725.51
      82	 1.87655	0.341652	        -1090.23	         2815.72	         1725.49
      83	  1.8822	0.336544	        -1098.72	          2824.2	         1725.48
      84	 1.88695	0.332485	        -1105.86	         2831.32	         1725.46
      85	 1.89063	0.329711	        -1111.39	         2836.84	         1725.46
      86	 1.89315	0.328348	        -1115.17	         2840.62	         1725.45
      87	 1.89448	0.328421	        -1117.18	         2842.62	         1725.45
      88	 1.89473	0.329806	        -1117.53	            2843	         1725.47
      89	 1.89426	0.332073	        -1116.76	         2842.29	         1725.53
      90	 1.89385	0.334286	        -1116.05	         2841.68	         1725.63
      91	 1.89454	 0.33521	        -1117.01	          2842.7	         1725.69
      92	 1.89689	0.334126	        -1120.59	         2846.24	         1725.65
      93	  1.9006	 0.33144	        -1126.24	          2851.8	         1725.56
      94	 1.90478	0.328215	        -1132.57	         2858.07	          1725.5
      95	 1.90871	0.325324	        -1138.48	         2863.96	         1725.48
      96	 1.91205	 0.32318	        -1143.49	         2868.97	         1725.48
      97	 1.91467	0.321951	        -1147.42	          2872.9	         1725.47
      98	 1.91643	0.321819	        -1150.09	         2875.54	         1725.45
      99	  1.9171	0.323055	        -1151.13	         2876.55	         1725.42
     100	 1.91648	0.325876	        -1150.21	         2875.62	         1725.41
     101	 1.91465	0.330169	        -1147.43	         2872.88	         1725.46
     102	 1.91217	 0.33524	        -1143.62	         2869.16	         1725.54
     103	 1.90988	0.340032	        -1140.13	         2865.72	         1725.59
     104	 1.90828	0.343882	        -1137.75	         2863.31	         1725.57
     105	 1.90732	 0.34683	        -1136.33	         2861.88	         1725.55
     106	 1.90695	0.348937	        -1135.72	         2861.32	          1725.6
     107	 1.90753	0.349727	        -1136.53	         2862.19	         1725.67
     108	 1.90961	0.348548	        -1139.63	         2865.32	         1725.69
     109	  1.9133	0.345281	        -1145.21	         2870.85	         1725.64
     110	 1.91805	0.340595	        -1152.43	         2877.98	         1725.55
     111	 1.92297	0.335591	        -1159.88	         2885.35	         1725.47
     112	 1.92724	0.331256	        -1166.31	         2891.75	         1725.44
     113	 1.93046	0.328095	        -1171.13	         2896.59	         1725.45
     114	 1.93271	 0.32606	        -1174.46	         2899.96	          1725.5
     115	 1.93437	0.324721	        -1176.91	         2902.46	         1725.55
     116	 1.93587	0.323611	        -1179.14	          2904.7	         1725.56
     117	 1.93731	0.322607	        -1181.33	         2906.86	         1725.53
     118	 1.93842	0.322039	        -1183.05	         2908.52	         1725.48
     119	 1.93879	0.322385	        -1183.64	         2909.09	         1725.45
     120	 1.93826	0.323847	        -1182.83	         2908.29	         1725.47
     121	 1.93704	0.326156	        -1180.95	         2906.45	         1725.51
     122	 1.93556	0.328768	         -1178.7	         2904.23	         1725.54
     123	 1.93414	0.331275	        -1176.58	         2902.11	         1725.52
     124	 1.93278	0.333657	        -1174.58	         2900.07	         1725.49
     125	 1.93129	0.336114	        -1172.35	         2897.84	         1725.49
     126	 1.92971	0.338593	        -1169.92	         2895.46	         1725.53
     127	 1.92842	0.340578	        -1167.94	         2893.53	         1725.59
     128	 1.92795	0.341447	        -1167.21	         2892.83	         1725.62
     129	 1.92846	0.341012	        -1167.99	         2893.58	         1725.59
     130	 1.92965	0.339614	        -1169.82	         2895.38	         1725.55
     131	 1.93111	 0.33778	        -1172.04	         2897.57	         1725.53
     132	 1.93251	0.335909	        -1174.15	         2899.67	         1725.52
     133	 1.93369	0.334208	        -1175.92	         2901.44	         1725.52
     134	 1.93461	0.332764	        -1177.29	         2902.81	         1725.51
     135	  1.9352	0.331644	         -1178.2	          2903.7	          1725.5
     136	 1.93541	0.330943	        -1178.54	         2904.02	         1725.48
     137	  1.9352	0.330704	        -1178.22	          2903.7	         1725.48
     138	 1.93469	0.330783	        -1177.43	         2902.93	          1725.5
     139	 1.93422	0.330762	        -1176.68	         2902.22	         1725.54
     140	 1.93428	0.330058	        -1176.73	         2902.31	         1725.58
     141	 1.93528	0.328181	        -1178.23	         2903.82	          1725.6
     142	 1.93738	 0.32498	        -1181.39	         2906.97	         1725.58
     143	 1.94039	0.320692	        -1185.93	         2911.48	         1725.55
     144	 1.94397	0.315768	        -1191.33	         2916.85	         1725.52
     145	  1.9477	0.310712	        -1196.97	         2922.46	         1725.49
     146	 1.95112	0.306121	        -1202.13	         2927.57	         1725.44
     147	 1.95366	0.302682	        -1205.97	         2931.38	         1725.41
     148	 1.95497	0.300849	        -1207.92	         2933.35	         1725.43
     149	 1.95512	0.300562	        -1208.09	         2933.58	         1725.48
     150	 1.95445	0.301402	        -1207.06	         2932.58	         1725.52
     151	 1.95324	0.303033	        -1205.25	         2930.76	         1725.51
     152	 1.95145	0.305465	         -1202.6	         2928.08	         1725.48
     153	 1.94888	0.308913	        -1198.76	         2924.22	         1725.46
     154	 1.94547	0.313408	        -1193.62	         2919.11	         1725.49
     155	  1.9416	0.318467	        -1187.73	         2913.29	         1725.56
     156	 1.93804	0.323125	        -1182.32	         2907.95	         1725.63
     157	 1.93555	0.326439	        -1178.58	         2904.23	         1725.65
     158	 1.93437	0.328121	        -1176.86	         2902.46	         1725.59
     159	 1.93408	0.328648	        -1176.51	         2902.03	         1725.52
     160	  1.9341	0.328714	        -1176.57	         2902.05	         1725.49
     161	 1.93417	0.328626	        -1176.65	         2902.16	         1725.51
     162	 1.93452	0.328132	        -1177.11	         2902.67	         1725.56
     163	 1.93561	0.326692	        -1178.72	         2904.31	          1725.6
     164	 1.93781	 0.32392	        -1182.02	         2907.61	          1725.6
     165	  1.9411	0.319879	        -1186.99	         2912.55	         1725.56
     166	 1.94507	  0.3151	           -1193	          2918.5	         1725.49
     167	 1.94908	 0.31038	        -1199.07	         2924.51	         1725.45
     168	 1.95264	0.306366	        -1204.41	         2929.86	         1725.45
     169	 1.95567	0.303223	        -1208.92	          2934.4	         1725.48
     170	 1.95825	0.300863	         -1212.8	         2938.27	         1725.47
     171	 1.96021	0.299537	         -1215.8	         2941.21	         1725.41
     172	 1.96097	0.299943	        -1217.01	         2942.36	         1725.35
     173	 1.95999	 0.30274	        -1215.55	         2940.89	         1725.34
     174	 1.95712	0.308069	         -1211.2	         2936.57	         1725.38
     175	 1.95278	0.315372	         -1204.6	         2930.06	         1725.46
     176	 1.94787	0.323524	        -1197.15	          2922.7	         1725.56
     177	 1.94336	  0.3313	        -1190.33	         2915.94	         1725.61
     178	 1.93983	0.337926	        -1185.05	         2910.65	          1725.6
     179	 1.93736	0.343253	        -1181.36	         2906.93	         1725.57
     180	 1.93571	0.347475	        -1178.92	         2904.47	         1725.55
     181	 1.93469	0.350786	        -1177.39	         2902.94	         1725.54
     182	 1.93422	0.353241	        -1176.68	         2902.23	         1725.55
     183	 1.93431	0.354814	         -1176.8	         2902.36	         1725.55
     184	 1.93493	0.355518	        -1177.74	         2903.29	         1725.55
     185	 1.93599	0.355474	        -1179.34	         2904.88	         1725.54
     186	 1.93735	0.354849	        -1181.39	         2906.93	         1725.54
     187	 1.93894	0.353747	        -1183.77	         2909.31	         1725.54
     188	 1.94072	0.352221	        -1186.44	         2911.98	         1725.53
     189	 1.94259	0.350396	        -1189.27	         2914.79	         1725.51
     190	 1.94436	0.348527	        -1191.95	         2917.44	         1725.49
     191	 1.94581	0.346895	        -1194.15	         2919.62	         1725.47
     192	 1.94687	0.345619	        -1195.72	          2921.2	         1725.48
     193	 1.94758	0.344637	        -1196.79	         2922.27	         1725.48
     194	 1.94798	0.343925	        -1197.41	         2922.87	         1725.46
     195	 1.94792	0.343661	        -1197.35	         2922.78	         1725.44
     196	  1.9473	 0.34398	        -1196.39	         2921.85	         1725.46
     197	 1.94634	 0.34461	        -1194.89	         2920.41	         1725.52
     198	 1.94562	0.344869	        -1193.75	         2919.33	         1725.59
     199	 1.94579	0.343998	        -1193.95	         2919.58	         1725.63
     200	 1.94723	 0.34154	        -1196.12	         2921.75	         1725.63
     201	 1.94994	0.337542	        -1200.22	         2925.81	         1725.59
     202	 1.95347	0.332542	        -1205.58	          2931.1	         1725.52
     203	 1.95715	0.327352	        -1211.16	         2936.62	         1725.46
     204	 1.96031	0.322787	        -1215.95	         2941.36	         1725.41
     205	 1.96245	0.319452	        -1219.18	         2944.58	         1725.39
     206	 1.96344	0.317542	        -1220.63	         2946.06	         1725.43
     207	 1.96361	0.316683	        -1220.82	         2946.32	          1725.5
     208	 1.96367	0.316063	        -1220.84	         2946.41	         1725.57
     209	 1.96426	0.314934	         -1221.7	         2947.28	         1725.58
     210	 1.96554	0.313104	        -1223.67	         2949.22	         1725.55
     211	 1.96725	0.310935	        -1226.26	         2951.77	          1725.5
     212	 1.96894	 0.30893	        -1228.84	         2954.31	         1725.48
     213	 1.97041	0.307368	        -1231.03	         2956.51	         1725.48
     214	 1.97163	0.306253	        -1232.86	         2958.35	         1725.49
     215	 1.97273	0.305475	         -1234.5	            2960	          1725.5
     216	 1.97381	0.304917	        -1236.11	         2961.61	          1725.5
     217	 1.97491	0.304533	        -1237.77	         2963.27	          1725.5
     218	 1.97596	0.304426	        -1239.36	         2964.84	         1725.48
     219	 1.97677	0.304837	        -1240.58	         2966.05	         1725.46
     220	 1.97712	 0.30601	        -1241.13	         2966.58	         1725.46
     221	  1.9769	0.308102	         -1240.8	         2966.25	         1725.45
     222	 1.97602	  0.3112	        -1239.49	         2964.93	         1725.44
     223	 1.97442	0.315355	         -1237.1	         2962.53	         1725.44
     224	 1.97207	0.320587	        -1233.58	            2959	         1725.42
     225	 1.96894	0.326862	         -1228.9	         2954.31	         1725.41
     226	 1.96511	0.334045	        -1223.15	         2948.56	         1725.42
     227	 1.96083	0.341772	        -1216.69	         2942.14	         1725.46
     228	 1.95678	0.349216	         -1210.5	         2936.06	         1725.56
     229	 1.95416	0.354904	        -1206.45	         2932.14	         1725.69
     230	 1.95417	0.357372	        -1206.45	         2932.15	          1725.7
     231	 1.95682	0.356548	        -1210.56	         2936.13	         1725.57
     232	 1.96094	0.353866	        -1216.85	          2942.3	         1725.45
     233	 1.96522	0.350867	        -1223.32	         2948.73	         1725.41
     234	 1.96901	0.348331	        -1228.99	         2954.41	         1725.43
     235	 1.97219	0.346414	        -1233.73	         2959.18	         1725.45
     236	 1.97488	0.345026	        -1237.75	         2963.22	         1725.48
     237	  1.9772	0.344088	        -1241.21	         2966.69	         1725.48
     238	 1.97911	0.343658	         -1244.1	         2969.56	         1725.46
     239	 1.98043	0.343985	        -1246.12	         2971.55	         1725.43
     240	 1.98083	0.345473	        -1246.75	         2972.14	         1725.39
     241	 1.97996	0.348513	        -1245.47	         2970.83	         1725.36
     242	 1.97768	0.353244	        -1242.05	         2967.42	         1725.38
     243	 1.97421	0.359382	         -1236.8	         2962.22	         1725.42
     244	 1.97008	0.366253	        -1230.54	         2956.02	         1725.48
     245	 1.96593	0.373054	        -1224.27	         2949.79	         1725.52
     246	 1.96218	 0.37921	        -1218.66	         2944.17	         1725.51
     247	 1.95884	0.384658	         -1213.7	         2939.15	         1725.45
     248	 1.95547	0.389828	        -1208.73	          2934.1	         1725.38
     249	 1.95161	0.395213	        -1202.95	         2928.31	         1725.35
     250	 1.94728	0.400708	        -1196.39	         2921.82	         1725.43
     251	 1.94346	0.405154	        -1190.49	         2916.09	          1725.6
     252	  1.9419	0.406455	        -1187.98	         2913.75	         1725.78
     253	 1.94432	0.402596	        -1191.55	         2917.38	         1725.82
     254	 1.95105	0.393188	         -1201.8	         2927.47	         1725.68
     255	  1.9606	0.380088	        -1216.34	          2941.8	         1725.46
     256	 1.97065	0.366127	        -1231.56	         2956.87	         1725.31
     257	 1.97938	0.353505	        -1244.71	         2969.96	         1725.26
     258	 1.98589	0.343334	        -1254.47	         2979.73	         1725.26
     259	 1.99002	 0.33589	        -1260.62	         2985.92	         1725.31
     260	 1.99211	0.330842	        -1263.68	         2989.06	         1725.38
     261	 1.99287	0.327393	        -1264.75	         2990.21	         1725.46
     262	 1.99311	0.324611	        -1265.06	         2990.57	         1725.51
     263	 1.99342	0.321823	        -1265.49	         2991.03	         1725.53
     264	 1.99415	 0.31862	        -1266.57	         2992.12	         1725.56
     265	 1.99553	0.314733	        -1268.64	          2994.2	         1725.55
     266	 1.99746	0.310285	        -1271.58	         2997.08	         1725.51
     267	 1.99944	 0.30588	         -1274.6	         3000.05	         1725.46
     268	 2.00092	 0.30219	        -1276.84	         3002.28	         1725.44
     269	 2.00161	0.299596	        -1277.86	         3003.31	         1725.44
     270	 2.00145	0.298159	        -1277.61	         3003.07	         1725.46
     271	 2.00054	0.297796	        -1276.24	         3001.71	         1725.47
     272	 1.99893	0.298443	        -1273.82	         2999.29	         1725.47
     273	 1.99665	0.300062	         -1270.4	         2995.87	         1725.47
     274	 1.99378	0.302539	        -1266.08	         2991.57	         1725.49
     275	 1.99053	0.305603	        -1261.18	          2986.7	         1725.51
     276	 1.98723	0.308829	         -1256.2	         2981.74	         1725.54
     277	 1.98421	0.311766	        -1251.66	         2977.21	         1725.56
     278	 1.98167	0.314135	        -1247.86	         2973.41	         1725.55
     279	 1.97962	0.315881	        -1244.79	         2970.33	         1725.54
     280	 1.97803	0.317009	        -1242.38	         2967.94	         1725.55
     281	 1.97696	 0.31739	        -1240.76	         2966.34	         1725.58
     282	 1.97664	0.316762	        -1240.24	         2965.85	         1725.61
     283	 1.97729	0.314843	        -1241.19	         2966.83	         1725.64
     284	 1.97913	0.311411	        -1243.93	          2969.6	         1725.67
     285	 1.98226	0.306377	        -1248.62	         2974.29	         1725.67
     286	 1.98655	0.299947	        -1255.09	         2980.72	         1725.64
     287	 1.99155	0.292713	        -1262.63	         2988.22	         1725.59
     288	 1.99662	0.285506	        -1270.28	         2995.82	         1725.54
     289	 2.00112	0.279149	        -1277.07	         3002.57	          1725.5
     290	 2.00456	0.274294	        -1282.25	         3007.73	         1725.48
     291	 2.00659	0.271401	        -1285.32	         3010.79	         1725.46
     292	 2.00701	0.270756	        -1285.97	         3011.42	         1725.45
     293	 2.00572	0.272495	        -1284.03	         3009.48	         1725.44
     294	 2.00272	0.276592	        -1279.54	         3004.98	         1725.45
     295	 1.99822	0.282786	        -1272.76	         2998.23	         1725.47
     296	 1.99268	0.290482	        -1264.39	         2989.92	         1725.53
     297	 1.98684	0.298751	        -1255.56	         2981.15	         1725.59
     298	 1.98144	0.306619	        -1247.44	         2973.05	         1725.61
     299	 1.97685	0.313565	        -1240.61	         2966.18	         1725.57
     300	 1.97288	0.319759	        -1234.72	         2960.21	         1725.49
     301	 1.96903	0.325715	        -1228.99	         2954.44	         1725.46
     302	 1.96517	0.331566	        -1223.15	         2948.65	         1725.51
     303	 1.96184	0.336637	        -1218.05	         2943.65	          1725.6
     304	 1.95994	0.339827	        -1215.16	         2940.81	         1725.66
     305	 1.96003	0.340499	        -1215.31	         2940.95	         1725.64
     306	 1.96191	0.338912	         -1218.2	         2943.76	         1725.56
     307	 1.96486	0.335939	         -1222.7	         2948.19	         1725.48
     308	 1.96808	0.332571	        -1227.59	         2953.02	         1725.43
     309	 1.97092	0.329599	        -1231.89	         2957.28	         1725.39
     310	   1.973	0.327514	        -1235.02	          2960.4	         1725.38
     311	  1.9742	0.326486	         -1236.8	          2962.2	          1725.4
     312	 1.97471	0.326322	        -1237.52	         2962.96	         1725.44
     313	 1.97488	0.326596	        -1237.75	         2963.21	         1725.46
     314	 1.97492	0.327049	        -1237.84	         2963.28	         1725.44
     315	 1.97468	0.327854	        -1237.53	         2962.92	          1725.4
     316	 1.97384	0.329369	        -1236.28	         2961.66	         1725.38
     317	 1.97229	0.331676	        -1233.92	         2959.33	          1725.4
     318	 1.97042	 0.33428	        -1231.04	         2956.53	         1725.49
     319	 1.96924	0.336005	        -1229.14	         2954.76	         1725.62
     320	 1.96996	 0.33539	        -1230.16	         2955.84	         1725.68
     321	   1.973	0.331889	        -1234.82	          2960.4	         1725.58
     322	 1.97737	0.326709	        -1241.55	         2966.96	         1725.41
     323	 1.98147	 0.32181	        -1247.77	         2973.11	         1725.33
     324	 1.98434	0.318336	        -1252.04	          2977.4	         1725.37
     325	 1.98599	0.316282	        -1254.44	         2979.88	         1725.44
     326	 1.98689	0.315125	        -1255.75	         2981.23	         1725.48
     327	 1.98736	0.314521	        -1256.46	         2981.94	         1725.48
     328	 1.98737	0.314533	        -1256.49	         2981.95	         1725.46
     329	 1.98674	0.315372	        -1255.55	         2981.02	         1725.47
     330	 1.98554	0.316988	        -1253.69	          2979.2	         1725.51
     331	 1.98417	0.318873	        -1251.57	         2977.16	         1725.59
     332	 1.98327	 0.32029	        -1250.18	         2975.81	         1725.63
     333	 1.98322	0.320784	        -1250.12	         2975.73	         1725.61
     334	 1.98383	0.320588	        -1251.11	         2976.64	         1725.53
     335	 1.98439	0.320528	        -1252.03	         2977.48	         1725.45
     336	 1.98414	0.321505	        -1251.71	         2977.11	          1725.4
     337	 1.98271	0.323957	        -1249.55	         2974.96	         1725.41
     338	  1.9803	0.327621	        -1245.87	         2971.34	         1725.47
     339	 1.97753	0.331727	        -1241.67	          2967.2	         1725.53
     340	 1.97504	0.335513	        -1237.91	         2963.45	         1725.54
     341	 1.97313	0.338577	        -1235.06	         2960.59	         1725.54
     342	 1.97186	 0.34084	        -1233.17	         2958.68	         1725.51
     343	 1.97101	0.342495	        -1231.95	         2957.41	         1725.45
     344	 1.97016	0.343997	        -1230.74	         2956.14	          1725.4
     345	 1.96894	0.345775	        -1228.92	          2954.3	         1725.39
     346	 1.96728	0.347838	         -1226.4	         2951.82	         1725.42
     347	 1.96561	0.349669	        -1223.82	         2949.31	         1725.49
     348	  1.9647	0.350335	        -1222.37	         2947.94	         1725.58
     349	 1.96552	0.348713	        -1223.51	         2949.17	         1725.66
     350	 1.96884	 0.34391	        -1228.48	         2954.16	         1725.68
     351	 1.97484	0.335784	        -1237.54	         2963.17	         1725.62
     352	 1.98281	0.325246	        -1249.61	         2975.11	          1725.5
     353	 1.99133	0.314049	        -1262.53	         2987.89	         1725.36
     354	 1.99882	 0.30414	        -1273.88	         2999.13	         1725.26
     355	 2.00404	0.297066	        -1281.75	         3006.96	         1725.21
     356	 2.00633	0.293657	        -1285.17	         3010.39	         1725.22
     357	 2.00561	0.294007	        -1284.05	         3009.31	         1725.26
     358	 2.00225	0.297661	        -1278.95	         3004.27	         1725.32
     359	 1.99694	 0.30376	        -1270.89	          2996.3	         1725.41
     360	 1.99071	0.311027	        -1261.43	         2986.96	         1725.54
     361	 1.98505	0.317667	        -1252.77	         2978.47	         1725.71
     362	 1.98162	0.321653	         -1247.5	         2973.32	         1725.82
     363	 1.98148	0.321671	        -1247.33	         2973.13	          1725.8
     364	 1.98443	0.317991	        -1251.88	         2977.54	         1725.66
     365	 1.98913	0.312214	        -1259.08	         2984.59	         1725.52
     366	 1.99406	0.306199	        -1266.55	         2991.98	         1725.43
     367	 1.99815	0.301244	        -1272.72	         2998.12	          1725.4
     368	   2.001	0.297887	        -1276.97	          3002.4	         1725.43
     369	 2.00271	0.296073	         -1279.5	         3004.96	         1725.47
     370	 2.00361	0.295463	        -1280.82	         3006.32	          1725.5
     371	   2.004	 0.29574	        -1281.39	          3006.9	         1725.51
     372	 2.00397	0.296807	        -1281.37	         3006.85	         1725.49
     373	  2.0034	0.298796	        -1280.55	            3006	         1725.45
     374	 2.00202	0.301998	        -1278.52	         3003.93	         1725.41
     375	 1.99955	 0.30669	        -1274.83	         3000.22	         1725.39
     376	 1.99603	0.312786	        -1269.51	         2994.94	         1725.44
     377	 1.99203	0.319557	        -1263.42	         2988.94	         1725.53
     378	 1.98852	0.325802	        -1258.08	         2983.68	          1725.6
     379	 1.98633	0.330483	        -1254.79	         2980.39	         1725.61
     380	  1.9856	0.333395	        -1253.76	         2979.29	         1725.53
     381	 1.98573	0.335228	        -1254.05	         2979.49	         1725.44
     382	 1.98591	0.336922	        -1254.38	         2979.77	         1725.38
     383	 1.98561	0.339076	        -1253.94	         2979.31	         1725.37
     384	 1.98468	0.341828	        -1252.51	         2977.91	          1725.4
     385	 1.98337	0.344863	        -1250.49	         2975.95	         1725.47
     386	 1.98234	0.347402	        -1248.85	         2974.42	         1725.57
     387	 1.98248	0.348393	        -1248.97	         2974.61	         1725.64
     388	 1.98436	0.347118	         -1251.8	         2977.43	         1725.63
     389	 1.98781	  0.3438	        -1257.06	         2982.61	         1725.55
     390	 1.99199	0.339469	        -1263.41	         2988.88	         1725.47
     391	 1.99595	0.335276	        -1269.41	         2994.83	         1725.42
     392	 1.99907	0.332003	        -1274.08	          2999.5	         1725.42
     393	 2.00111	0.329957	        -1277.13	         3002.57	         1725.44
     394	 2.00218	0.329078	         -1278.7	         3004.17	         1725.47
     395	 2.00252	0.329106	        -1279.18	         3004.68	          1725.5
     396	 2.00242	0.329742	        -1279.01	         3004.53	         1725.52
     397	 2.00208	0.330763	        -1278.49	         3004.01	         1725.52
     398	 2.00157	 0.33208	        -1277.73	         3003.25	         1725.51
     399	 2.00087	0.333712	         -1276.7	          3002.2	          1725.5
     400	 1.99989	0.335752	        -1275.26	         3000.74	         1725.48
     401	 1.99853	0.338298	        -1273.23	          2998.7	         1725.46
     402	  1.9968	0.341319	        -1270.62	          2996.1	         1725.48
     403	 1.99493	0.344511	        -1267.78	         2993.29	         1725.52
     404	 1.99333	0.347357	        -1265.34	          2990.9	         1725.55
     405	 1.99241	0.349358	        -1263.94	         2989.52	         1725.58
     406	 1.99239	0.350237	        -1263.91	         2989.48	         1725.57
     407	 1.99317	0.350072	        -1265.12	         2990.65	         1725.53
     408	 1.99435	0.349329	        -1266.96	         2992.42	         1725.46
     409	 1.99536	0.348688	        -1268.52	         2993.94	         1725.42
     410	 1.99582	0.348621	        -1269.21	         2994.63	         1725.43
     411	 1.99579	0.349074	         -1269.1	         2994.58	         1725.48
     412	 1.99569	0.349545	         -1268.9	         2994.43	         1725.53
     413	   1.996	0.349497	        -1269.34	         2994.89	         1725.56
     414	 1.99693	0.348686	        -1270.74	         2996.29	         1725.56
     415	 1.99844	0.347181	        -1273.02	         2998.56	         1725.54
     416	 2.00035	0.345215	        -1275.89	         3001.42	         1725.53
     417	 2.00244	0.343046	        -1279.05	         3004.56	         1725.51
     418	 2.00445	0.340987	        -1282.11	         3007.57	         1725.47
     419	 2.00593	0.339578	        -1284.38	         3009.79	          1725.4
     420	 2.00628	0.339526	        -1284.96	         3010.31	         1725.35
     421	 2.00508	0.341325	        -1283.17	         3008.52	         1725.35
     422	 2.00234	0.344951	        -1279.03	         3004.41	         1725.38
     423	 1.99842	0.349934	        -1273.11	         2998.52	         1725.42
     424	 1.99389	0.355572	        -1266.26	         2991.73	         1725.47
     425	 1.98954	0.360937	        -1259.64	          2985.2	         1725.57
     426	 1.98641	0.364774	        -1254.84	         2980.51	         1725.67
     427	 1.98547	0.365901	        -1253.42	         2979.11	         1725.69
     428	 1.98692	0.364097	        -1255.68	         2981.28	          1725.6
     429	 1.98994	 0.36035	        -1260.32	          2985.8	         1725.48
     430	 1.99336	0.356073	        -1265.52	         2990.94	         1725.41
     431	 1.99635	0.352277	        -1270.03	         2995.42	         1725.39
     432	 1.99853	0.349436	        -1273.31	         2998.69	         1725.38
     433	 1.99965	0.347841	        -1275.02	         3000.37	         1725.34
     434	 1.99937	0.347895	        -1274.66	         2999.95	          1725.3
     435	 1.99739	0.349953	        -1271.69	         2996.99	          1725.3
     436	 1.99402	 0.35367	         -1266.5	         2991.92	         1725.42
     437	 1.99052	0.357509	        -1261.07	         2986.68	          1725.6
     438	 1.98857	0.359428	        -1258.07	         2983.75	         1725.68
     439	  1.9889	0.358532	        -1258.63	         2984.26	         1725.62
     440	 1.99108	0.355395	        -1261.96	         2987.52	         1725.56
     441	 1.99434	0.350907	        -1266.88	         2992.41	         1725.53
     442	 1.99814	0.345709	        -1272.61	         2998.11	          1725.5
     443	 2.00203	0.340383	        -1278.47	         3003.94	         1725.47
     444	 2.00554	 0.33554	        -1283.76	          3009.2	         1725.44
     445	 2.00828	0.331674	        -1287.89	         3013.32	         1725.43
     446	 2.01005	0.329077	        -1290.55	         3015.98	         1725.43
     447	 2.01068	0.327944	        -1291.52	         3016.92	         1725.41
     448	 2.00996	0.328534	        -1290.46	         3015.83	         1725.37
     449	  2.0076	0.331143	        -1286.94	          3012.3	         1725.36
     450	 2.00357	0.335796	        -1280.86	         3006.26	         1725.39
     451	  1.9983	0.341929	        -1272.87	         2998.35	         1725.48
     452	 1.99274	0.348377	        -1264.41	            2990	         1725.59
     453	 1.98803	 0.35372	        -1257.26	         2982.94	         1725.69
     454	 1.98517	0.356764	        -1252.92	         2978.65	         1725.73
     455	 1.98463	0.356913	        -1252.14	         2977.85	         1725.71
     456	  1.9863	0.354326	         -1254.7	         2980.35	         1725.64
     457	  1.9895	0.349813	        -1259.59	         2985.14	         1725.55
     458	 1.99328	0.344516	        -1265.36	         2990.82	         1725.46
     459	 1.99673	0.339565	        -1270.61	            2996	         1725.39
     460	 1.99916	0.335812	        -1274.29	         2999.64	         1725.36
     461	 2.00025	 0.33366	        -1275.92	         3001.28	         1725.36
     462	 2.00007	0.333039	        -1275.62	         3001.01	         1725.39
     463	 1.99896	0.333547	        -1273.91	         2999.34	         1725.43
     464	 1.99745	 0.33455	        -1271.58	         2997.08	          1725.5
     465	  1.9964	0.335074	         -1269.9	          2995.5	          1725.6
     466	 1.99685	0.333869	        -1270.51	         2996.17	         1725.67
     467	 1.99936	0.330257	        -1274.32	         2999.93	         1725.61
     468	 2.00343	0.324868	        -1280.54	         3006.04	          1725.5
     469	 2.00788	0.319125	        -1287.32	         3012.72	          1725.4
     470	 2.01157	0.314408	        -1292.92	         3018.25	         1725.34
     471	 2.01364	0.311725	        -1296.06	         3021.35	          1725.3
     472	  2.0136	0.311655	        -1296.01	          3021.3	         1725.29
     473	 2.01133	0.314342	        -1292.59	         3017.89	         1725.31
     474	 2.00702	0.319524	        -1286.07	         3011.42	         1725.35
     475	 2.00122	  0.3265	        -1277.29	         3002.72	         1725.43
     476	 1.99492	0.334057	        -1267.72	         2993.28	         1725.56
     477	 1.98947	0.340552	        -1259.42	          2985.1	         1725.68
     478	 1.98603	0.344526	        -1254.24	         2979.94	          1725.7
     479	  1.9849	0.345586	        -1252.62	         2978.25	         1725.63
     480	 1.98545	0.344485	        -1253.53	         2979.07	         1725.53
     481	 1.98675	0.342296	        -1255.54	         2981.03	         1725.49
     482	 1.98825	0.339697	        -1257.79	         2983.28	         1725.49
     483	 1.98985	 0.33683	        -1260.14	         2985.67	         1725.53
     484	 1.99177	0.333474	        -1262.98	         2988.55	         1725.57
     485	 1.99432	 0.32933	        -1266.78	         2992.38	         1725.59
     486	 1.99759	0.324339	        -1271.72	         2997.29	         1725.57
     487	 2.00128	0.318926	        -1277.31	         3002.81	          1725.5
     488	 2.00468	0.313963	         -1282.5	         3007.92	         1725.42
     489	   2.007	0.310433	        -1286.04	          3011.4	         1725.36
     490	 2.00766	0.309043	        -1287.06	         3012.39	         1725.33
     491	  2.0065	0.309984	        -1285.29	         3010.65	         1725.36
     492	 2.00385	0.312862	        -1281.25	         3006.67	         1725.42
     493	 2.00047	0.316759	        -1276.08	         3001.61	         1725.52
     494	  1.9975	0.320341	        -1271.51	         2997.15	         1725.64
     495	 1.99612	0.322187	        -1269.37	         2995.08	         1725.71
     496	 1.99694	 0.32156	        -1270.65	         2996.31	         1725.66
     497	 1.99942	  0.3191	        -1274.52	         3000.02	          1725.5
     498	 2.00208	0.316563	        -1278.68	         3004.02	         1725.35
     499	 2.00342	0.315762	        -1280.76	         3006.03	         1725.27
     500	  2.0026	0.317684	        -1279.52	         3004.79	         1725.28
     501	 1.99972	0.322216	        -1275.11	         3000.47	         1725.36
     502	 1.99554	0.328443	        -1268.77	         2994.21	         1725.43
     503	 1.99079	 0.33546	        -1261.66	         2987.08	         1725.42
     504	 1.98553	0.343149	        -1253.83	         2979.19	         1725.36
     505	  1.9794	0.351879	        -1244.65	         2969.99	         1725.34
     506	 1.97244	0.361528	        -1234.15	         2959.55	          1725.4
     507	  1.9655	0.371024	        -1223.61	         2949.14	         1725.54
     508	  1.9601	0.378531	        -1215.37	         2941.05	         1725.69
     509	 1.95772	0.382243	        -1211.78	         2937.48	         1725.71
     510	 1.95862	0.381815	        -1213.25	         2938.83	         1725.57
     511	 1.96168	0.378601	        -1217.97	         2943.42	         1725.45
     512	 1.96565	0.374112	        -1223.96	         2949.38	         1725.41
     513	 1.96995	 0.36905	        -1230.39	         2955.82	         1725.42
     514	 1.97439	 0.36366	        -1237.06	         2962.48	         1725.41
     515	 1.97873	0.358309	        -1243.61	         2968.99	         1725.39
     516	  1.9826	0.353519	        -1249.43	         2974.79	         1725.36
     517	 1.98567	0.349711	        -1254.05	          2979.4	         1725.35
     518	 1.98771	0.347194	        -1257.14	         2982.47	         1725.33
     519	 1.98853	0.346225	        -1258.38	          2983.7	         1725.32
     520	 1.98819	0.346762	        -1257.82	         2983.19	         1725.37
     521	 1.98716	0.348243	         -1256.2	         2981.63	         1725.43
     522	 1.98601	0.349945	        -1254.46	         2979.91	         1725.45
     523	 1.98505	0.351506	        -1253.02	         2978.47	         1725.44
     524	 1.98431	0.352881	        -1251.91	         2977.36	         1725.45
     525	 1.98384	0.353991	         -1251.2	         2976.66	         1725.47
     526	 1.98376	0.354691	        -1251.06	         2976.54	         1725.48
     527	 1.98412	0.354914	        -1251.61	         2977.08	         1725.48
     528	  1.9849	0.354706	        -1252.79	         2978.25	         1725.46
     529	 1.98588	0.354317	        -1254.31	         2979.72	         1725.41
     530	 1.98661	0.354286	        -1255.47	         2980.82	         1725.35
     531	 1.98655	0.355246	        -1255.41	         2980.73	         1725.32
     532	 1.98549	0.357443	        -1253.79	         2979.13	         1725.34
     533	 1.98368	0.360515	        -1251.04	         2976.42	         1725.39
     534	 1.98166	  0.3638	        -1247.96	          2973.4	         1725.44
     535	 1.98011	0.366502	        -1245.53	         2971.07	         1725.54
     536	 1.98007	0.367385	        -1245.34	            2971	         1725.65
     537	 1.98246	0.365267	        -1248.95	         2974.59	         1725.64
     538	   1.987	0.360485	        -1255.92	          2981.4	         1725.49
     539	 1.99219	0.354858	        -1263.83	         2989.18	         1725.35
     540	 1.99649	0.350181	        -1270.34	         2995.63	         1725.29
     541	 1.99903	0.347474	        -1274.16	         2999.45	         1725.29
     542	 1.99959	0.347012	        -1274.96	         3000.28	         1725.32
     543	 1.99843	0.348484	        -1273.15	         2998.54	         1725.39
     544	 1.99616	0.351168	        -1269.68	         2995.14	         1725.47
     545	 1.99356	0.354148	         -1265.7	         2991.24	         1725.54
     546	 1.99136	0.356527	        -1262.35	         2987.95	          1725.6
     547	 1.99012	 0.35765	        -1260.46	         2986.08	         1725.61
     548	 1.98997	0.357329	        -1260.26	         2985.85	         1725.58
     549	 1.99065	0.355865	        -1261.33	         2986.87	         1725.54
     550	 1.99176	0.353744	        -1263.02	         2988.54	         1725.52
     551	 1.99301	0.351316	         -1264.9	         2990.41	         1725.51
     552	 1.99426	0.348742	        -1266.78	          2992.3	         1725.52
     553	  1.9955	0.346078	        -1268.62	         2994.15	         1725.53
     554	 1.99678	0.343289	        -1270.52	         2996.06	         1725.54
     555	 1.99818	0.340279	        -1272.62	         2998.17	         1725.55
     556	 1.99975	 0.33704	        -1274.98	         3000.53	         1725.55
     557	 2.00135	0.333752	        -1277.39	         3002.92	         1725.53
     558	 2.00278	0.330675	        -1279.54	         3005.07	         1725.53
     559	 2.00395	0.327945	        -1281.28	         3006.82	         1725.54
     560	 2.00492	0.325501	        -1282.72	         3008.28	         1725.56
     561	 2.00587	0.323173	        -1284.12	          3009.7	         1725.58
     562	 2.00691	0.320831	         -1285.7	         3011.27	         1725.57
     563	 2.00801	0.318545	        -1287.38	         3012.91	         1725.54
     564	 2.00881	0.316727	        -1288.65	         3014.11	         1725.46
     565	 2.00863	0.316152	        -1288.49	         3013.84	         1725.36
     566	  2.0067	0.317717	        -1285.67	         3010.95	         1725.28
     567	 2.00269	0.321813	         -1279.6	         3004.93	         1725.33
     568	 1.99742	0.327481	         -1271.5	         2997.03	         1725.52
     569	 1.99284	 0.33235	        -1264.49	         2990.16	         1725.67
     570	 1.99037	0.334677	        -1260.85	         2986.45	         1725.59
     571	 1.98955	0.335019	        -1259.77	         2985.22	         1725.46
     572	 1.98917	0.334824	        -1259.25	         2984.65	         1725.39
     573	 1.98849	0.334878	        -1258.25	         2983.64	         1725.39
     574	 1.98742	0.335292	        -1256.62	         2982.03	         1725.42
     575	 1.98617	0.335807	        -1254.71	         2980.16	         1725.45
     576	 1.98514	0.335969	        -1253.12	         2978.61	         1725.49
     577	 1.98475	 0.33529	         -1252.5	         2978.02	         1725.53
     578	 1.98537	0.333359	         -1253.4	         2978.95	         1725.55
     579	 1.98722	0.329948	        -1256.17	         2981.72	         1725.55
     580	 1.99021	0.325197	         -1260.7	         2986.21	         1725.51
     581	 1.99383	0.319754	        -1266.21	         2991.64	         1725.43
     582	 1.99718	0.314707	        -1271.33	         2996.67	         1725.34
     583	 1.99932	0.311199	        -1274.59	         2999.88	         1725.29
     584	 1.99968	0.309909	        -1275.11	         3000.42	         1725.31
     585	 1.99832	0.310748	        -1272.99	         2998.38	         1725.38
     586	 1.99587	0.312946	        -1269.22	          2994.7	         1725.48
     587	 1.99325	0.315389	        -1265.19	         2990.77	         1725.58
     588	  1.9914	0.316952	        -1262.34	         2987.99	         1725.65
     589	 1.99095	0.316834	        -1261.66	         2987.32	         1725.67
     590	 1.99197	 0.31494	        -1263.24	         2988.86	         1725.62
     591	 1.99392	  0.3119	        -1266.24	         2991.79	         1725.55
     592	 1.99608	0.308579	        -1269.51	         2995.02	         1725.51
     593	 1.99791	0.305588	        -1272.27	         2997.77	          1725.5
     594	 1.99926	0.303146	        -1274.26	         2999.78	         1725.52
     595	 2.00021	0.301153	        -1275.66	         3001.21	         1725.56
     596	 2.00104	0.299323	        -1276.86	         3002.45	         1725.59
     597	 2.00202	0.297341	        -1278.32	         3003.93	         1725.61
     598	 2.00331	0.295058	        -1280.27	         3005.87	          1725.6
     599	  2.0048	0.292614	        -1282.54	          3008.1	         1725.57
     600	 2.00617	0.290401	        -1284.63	         3010.16	         1725.52
     601	 2.00702	  0.2889	        -1285.95	         3011.43	         1725.49
     602	 2.00703	0.288496	        -1285.97	         3011.44	         1725.47
     603	 2.00605	0.289339	         -1284.5	         3009.98	         1725.48
     604	 2.00428	0.291202	        -1281.79	         3007.32	         1725.53
     605	 2.00227	0.293419	         -1278.7	          3004.3	         1725.61
     606	 2.00081	0.295042	        -1276.44	         3002.11	         1725.68
     607	 2.00059	0.295249	        -1276.09	         3001.79	          1725.7
     608	  2.0018	0.293819	        -1277.95	         3003.59	         1725.65
     609	 2.00392	0.291349	        -1281.22	         3006.77	         1725.55
     610	 2.00602	0.288952	        -1284.46	         3009.93	         1725.47
     611	 2.00731	 0.28759	        -1286.41	         3011.86	         1725.45
     612	 2.00753	0.287562	         -1286.7	         3012.19	         1725.49
     613	   2.007	0.288492	        -1285.85	          3011.4	         1725.56
     614	 2.00628	0.289734	        -1284.71	         3010.31	          1725.6
     615	 2.00574	0.290828	        -1283.89	          3009.5	         1725.61
     616	 2.00545	0.291682	        -1283.48	         3009.07	         1725.59
     617	 2.00529	0.292429	        -1283.25	         3008.83	         1725.58
     618	 2.00513	0.293198	        -1283.02	         3008.59	         1725.57
     619	 2.00495	0.293989	        -1282.75	         3008.33	         1725.58
     620	 2.00486	0.294666	        -1282.59	         3008.19	          1725.6
     621	 2.00504	0.295003	        -1282.84	         3008.45	         1725.62
     622	 2.00568	0.294759	         -1283.8	         3009.42	         1725.63
     623	 2.00687	0.293845	         -1285.6	         3011.21	         1725.61
     624	  2.0084	0.292494	        -1287.94	          3013.5	         1725.56
     625	 2.00982	0.291264	        -1290.12	         3015.62	          1725.5
     626	 2.01057	  0.2908	         -1291.3	         3016.76	         1725.46
     627	 2.01035	0.291486	        -1290.96	         3016.43	         1725.47
     628	 2.00922	0.293246	        -1289.22	         3014.73	          1725.5
     629	 2.00756	0.295604	        -1286.69	         3012.24	         1725.55
     630	 2.00591	0.297929	        -1284.17	         3009.77	          1725.6
     631	 2.00475	0.299642	        -1282.39	         3008.03	         1725.63
     632	 2.00445	0.300312	        -1281.91	         3007.57	         1725.66
     633	 2.00521	0.299702	        -1283.05	         3008.71	         1725.66
     634	   2.007	0.297863	        -1285.78	          3011.4	         1725.63
     635	 2.00949	0.295222	        -1289.57	         3015.13	         1725.56
     636	 2.01202	0.292576	        -1293.46	         3018.93	         1725.47
     637	 2.01376	0.290916	        -1296.16	         3021.54	         1725.38
     638	 2.01397	0.291133	        -1296.52	         3021.85	         1725.33
     639	 2.01232	0.293614	        -1294.03	         3019.38	         1725.35
     640	 2.00928	0.297823	        -1289.36	         3014.83	         1725.47
     641	 2.00617	0.302205	        -1284.53	         3010.15	         1725.62
     642	 2.00444	 0.30497	         -1281.9	         3007.56	         1725.67
     643	 2.00465	0.305469	         -1282.3	         3007.87	         1725.58
     644	 2.00602	 0.30461	        -1284.48	         3009.93	         1725.45
     645	 2.00738	0.303788	        -1286.57	         3011.97	          1725.4
     646	 2.00804	0.303784	        -1287.55	         3012.96	         1725.41
     647	  2.0079	0.304684	        -1287.33	         3012.76	         1725.43
     648	 2.00706	0.306371	        -1286.06	         3011.49	         1725.42
     649	 2.00552	0.308816	        -1283.76	         3009.18	         1725.42
     650	 2.00339	0.311901	        -1280.53	         3005.99	         1725.46
     651	 2.00122	0.314985	        -1277.16	         3002.73	         1725.57
     652	 2.00016	0.316711	        -1275.44	         3001.14	          1725.7
     653	 2.00129	0.315774	        -1277.14	         3002.83	         1725.69
     654	 2.00449	 0.31232	        -1282.08	         3007.64	         1725.55
     655	  2.0085	0.307943	         -1288.2	         3013.64	         1725.44
     656	 2.01208	0.304133	        -1293.59	         3019.01	         1725.42
     657	 2.01478	0.301442	        -1297.62	         3023.06	         1725.44
     658	  2.0166	0.299899	        -1300.35	          3025.8	         1725.45
     659	 2.01753	0.299565	        -1301.75	         3027.19	         1725.44
     660	 2.01751	0.300525	        -1301.72	         3027.17	         1725.45
     661	 2.01666	0.302658	        -1300.41	         3025.88	         1725.48
     662	 2.01526	0.305603	        -1298.27	         3023.78	         1725.51
     663	  2.0137	0.308885	        -1295.92	         3021.45	         1725.54
     664	 2.01228	0.312138	        -1293.78	         3019.32	         1725.53
     665	 2.01105	 0.31528	        -1291.95	         3017.47	         1725.51
     666	 2.00985	 0.31846	         -1290.2	         3015.68	         1725.48
     667	 2.00842	0.321968	        -1288.09	         3013.52	         1725.43
     668	 2.00642	0.326169	        -1285.12	         3010.53	         1725.41
     669	 2.00386	0.331079	        -1281.22	         3006.69	         1725.47
     670	 2.00153	0.335783	        -1277.59	         3003.19	          1725.6
     671	 2.00061	0.338827	        -1276.17	         3001.81	         1725.64
     672	 2.00146	0.339766	        -1277.57	         3003.09	         1725.52
     673	 2.00307	0.339811	        -1280.14	         3005.51	         1725.37
     674	 2.00404	0.340626	        -1281.66	         3006.96	          1725.3
     675	 2.00367	0.343019	        -1281.06	          3006.4	         1725.34
     676	 2.00225	0.346623	        -1278.85	         3004.27	         1725.43
     677	 2.00054	0.350537	        -1276.23	          3001.7	         1725.48
     678	 1.99897	0.354244	        -1273.89	         2999.35	         1725.46
     679	 1.99743	0.357861	        -1271.62	         2997.05	         1725.42
     680	 1.99559	0.361778	        -1268.89	         2994.29	          1725.4
     681	 1.99322	0.366228	        -1265.31	         2990.72	         1725.41
     682	 1.99044	0.371026	         -1261.1	         2986.56	         1725.46
     683	 1.98775	0.375576	        -1257.01	         2982.52	         1725.51
     684	 1.98558	0.379303	        -1253.77	         2979.27	          1725.5
     685	 1.98389	0.382231	        -1251.31	         2976.73	         1725.42
     686	 1.98208	0.385034	        -1248.67	         2974.02	         1725.35
     687	  1.9796	0.388343	        -1244.96	          2970.3	         1725.34
     688	 1.97642	0.392141	        -1240.14	         2965.52	         1725.38
     689	 1.97299	0.395845	        -1234.95	         2960.38	         1725.43
     690	 1.96991	 0.39872	        -1230.27	         2955.76	         1725.49
     691	  1.9678	0.400015	        -1227.06	          2952.6	         1725.54
     692	 1.96721	0.399069	        -1226.15	         2951.71	         1725.57
     693	 1.96836	0.395607	        -1227.88	         2953.44	         1725.56
     694	 1.97121	0.389734	        -1232.16	         2957.72	         1725.56
     695	 1.97571	0.381568	         -1238.9	         2964.47	         1725.57
     696	 1.98182	0.371218	        -1248.08	         2973.63	         1725.55
     697	 1.98917	0.359193	        -1259.18	         2984.66	         1725.48
     698	 1.99693	0.346588	        -1270.91	          2996.3	         1725.39
     699	 2.00405	0.334754	        -1281.66	         3006.97	         1725.31
     700	 2.00966	0.324799	         -1290.1	         3015.39	         1725.29
     701	 2.01335	0.317297	        -1295.62	         3020.92	          1725.3
     702	 2.01509	0.312318	        -1298.21	         3023.54	         1725.33
     703	  2.0151	0.309669	        -1298.19	         3023.54	         1725.36
     704	 2.01372	0.308949	        -1296.07	         3021.48	         1725.42
     705	 2.01168	0.309356	         -1292.9	         3018.41	         1725.52
     706	 2.00993	0.309727	         -1290.2	         3015.79	          1725.6
     707	 2.00921	0.309184	        -1289.12	         3014.72	          1725.6
     708	 2.00952	0.307738	        -1289.66	         3015.19	         1725.53
     709	 2.01019	0.306182	        -1290.74	         3016.19	         1725.44
     710	 2.01035	0.305539	        -1291.04	         3016.42	         1725.38
     711	 2.00937	0.306541	        -1289.58	         3014.95	         1725.37
     712	 2.00709	 0.30936	        -1286.14	         3011.53	          1725.4
     713	 2.00373	0.313715	        -1281.07	         3006.49	         1725.42
     714	 1.99957	0.319226	        -1274.84	         3000.26	         1725.42
     715	 1.99468	0.325751	        -1267.53	         2992.92	         1725.39
     716	 1.98893	0.333367	        -1258.93	          2984.3	         1725.37
     717	 1.98242	0.341898	        -1249.11	         2974.52	         1725.42
     718	 1.97581	0.350466	         -1239.1	         2964.62	         1725.52
     719	 1.97028	0.357622	         -1230.7	         2956.32	         1725.62
     720	 1.96689	0.362046	        -1225.58	         2951.23	         1725.65
     721	 1.96607	0.363197	        -1224.41	            2950	          1725.6
     722	 1.96743	0.361521	        -1226.56	         2952.04	         1725.49
     723	 1.96998	0.358189	        -1230.48	         2955.87	         1725.38
     724	 1.97265	0.354461	        -1234.55	         2959.88	         1725.33
     725	 1.97486	0.351049	        -1237.84	         2963.19	         1725.35
     726	  1.9767	0.347885	        -1240.51	         2965.95	         1725.43
     727	 1.97883	0.344224	         -1243.6	         2969.14	         1725.54
     728	 1.98208	0.339123	        -1248.43	         2974.02	         1725.59
     729	 1.98687	 0.33215	        -1255.63	          2981.2	         1725.57
     730	 1.99284	0.323774	        -1264.67	         2990.16	         1725.49
     731	  1.9991	0.315122	        -1274.14	         2999.55	          1725.4
     732	 2.00463	0.307432	        -1282.49	         3007.84	         1725.35
     733	 2.00873	0.301567	        -1288.65	            3014	         1725.35
     734	 2.01122	0.297794	        -1292.34	         3017.73	         1725.39
     735	 2.01236	0.295819	        -1293.98	         3019.43	         1725.46
     736	 2.01269	0.295004	        -1294.41	         3019.94	         1725.53
     737	 2.01282	0.294648	        -1294.56	         3020.13	         1725.57
     738	 2.01315	0.294265	        -1295.04	         3020.62	         1725.58
     739	 2.01378	0.293715	        -1295.99	         3021.56	         1725.57
     740	 2.01459	0.293129	        -1297.24	         3022.78	         1725.55
     741	 2.01541	0.292708	        -1298.48	         3024.02	         1725.54
     742	  2.0161	0.292618	        -1299.52	         3025.04	         1725.52
     743	 2.01648	0.293034	        -1300.11	         3025.61	          1725.5
     744	 2.01633	0.294205	        -1299.92	          3025.4	         1725.47
     745	 2.01549	 0.29633	        -1298.66	         3024.14	         1725.48
     746	 2.01406	0.299269	        -1296.46	         3021.99	         1725.53
     747	 2.01255	0.302397	        -1294.12	         3019.72	          1725.6
     748	 2.01166	0.304866	        -1292.74	         3018.38	         1725.64
     749	 2.01178	0.306179	        -1292.95	         3018.57	         1725.62
     750	 2.01275	0.306551	        -1294.46	         3020.02	         1725.56
     751	 2.01402	0.306618	        -1296.42	         3021.93	         1725.51
     752	 2.01515	0.306918	        -1298.13	         3023.63	          1725.5
     753	 2.01598	 0.30765	        -1299.35	         3024.86	         1725.51
     754	 2.01655	0.308756	         -1300.2	         3025.72	         1725.53
     755	 2.01703	0.310074	        -1300.91	         3026.45	         1725.54
     756	 2.01758	0.311438	        -1301.72	         3027.26	         1725.55
     757	 2.01829	0.312733	        -1302.79	         3028.34	         1725.55
     758	 2.01922	0.313922	         -1304.2	         3029.73	         1725.54
     759	 2.02025	0.315133	        -1305.78	         3031.28	          1725.5
     760	 2.02105	0.316756	        -1307.03	         3032.47	         1725.44
     761	 2.02116	0.319328	        -1307.23	         3032.64	         1725.41
     762	 2.02028	0.323205	        -1305.91	         3031.31	          1725.4
     763	 2.01836	0.328398	        -1303.02	         3028.43	         1725.41
     764	 2.01553	0.334714	        -1298.78	          3024.2	         1725.41
     765	 2.01193	0.341957	        -1293.38	         3018.79	         1725.42
     766	 2.00771	0.349898	        -1287.02	         3012.46	         1725.44
     767	 2.00319	0.358089	         -1280.2	         3005.68	         1725.48
     768	 1.99886	0.365883	        -1273.68	         2999.19	         1725.52
     769	 1.99514	0.372715	        -1268.08	         2993.61	         1725.53
     770	  1.9922	0.378313	        -1263.68	          2989.2	         1725.52
     771	 1.98998	0.382669	        -1260.38	         2985.88	          1725.5
     772	  1.9884	 0.38584	           -1258	          2983.5	          1725.5
     773	 1.98749	 0.38774	         -1256.6	         2982.14	         1725.53
     774	 1.98758	0.387972	        -1256.67	         2982.27	         1725.59
     775	 1.98923	 0.38587	         -1259.1	         2984.75	         1725.66
     776	 1.99293	0.380908	        -1264.63	         2990.29	         1725.66
     777	 1.99858	0.373231	        -1273.16	         2998.76	          1725.6
     778	  2.0055	0.363743	        -1283.63	         3009.14	         1725.52
     779	 2.01275	 0.35365	        -1294.57	         3020.03	         1725.46
     780	 2.01957	0.343971	        -1304.82	         3030.25	         1725.43
     781	 2.02541	0.335412	        -1313.61	         3039.02	         1725.41
     782	 2.02997	0.328456	        -1320.45	         3045.85	          1725.4
     783	 2.03302	 0.32343	        -1325.02	         3050.42	          1725.4
     784	 2.03452	0.320443	        -1327.26	         3052.68	         1725.42
     785	 2.03466	0.319321	        -1327.43	         3052.88	         1725.46
     786	 2.03382	0.319622	        -1326.13	         3051.63	          1725.5
     787	 2.03247	0.320805	        -1324.08	          3049.6	         1725.52
     788	 2.03087	0.322524	        -1321.71	         3047.21	          1725.5
     789	 2.02896	 0.32485	        -1318.89	         3044.33	         1725.44
     790	  2.0263	0.328225	        -1314.99	         3040.35	         1725.37
     791	 2.02249	0.333104	        -1309.31	         3034.64	         1725.33
     792	 2.01749	0.339489	        -1301.78	         3027.14	         1725.36
     793	 2.01206	0.346492	        -1293.48	         3018.98	          1725.5
     794	 2.00787	0.352118	        -1287.03	         3012.71	         1725.68
     795	 2.00654	 0.35437	        -1285.08	         3010.71	         1725.63
     796	  2.0077	0.353648	        -1287.06	         3012.45	         1725.39
     797	 2.00936	0.352402	        -1289.67	         3014.94	         1725.27
     798	 2.01014	 0.35222	        -1290.79	         3016.11	         1725.32
     799	 2.01008	0.352998	        -1290.61	         3016.01	          1725.4
     800	 2.00973	0.354064	        -1290.07	         3015.49	         1725.43
     801	 2.00926	0.355228	        -1289.41	         3014.78	         1725.38
     802	 2.00823	0.356987	        -1287.93	         3013.24	         1725.31
     803	 2.00614	0.359913	         -1284.8	         3010.11	         1725.31
     804	 2.00297	0.363973	        -1279.99	         3005.36	         1725.37
     805	 1.99933	 0.36839	        -1274.43	          2999.9	         1725.47
     806	 1.99621	0.371953	        -1269.65	         2995.21	         1725.57
     807	 1.99462	0.373437	        -1267.19	         2992.83	         1725.63
     808	  1.9952	0.372069	        -1268.06	          2993.7	         1725.63
     809	 1.99793	0.367874	        -1272.21	         2997.79	         1725.58
     810	 2.00222	0.361566	        -1278.72	         3004.23	         1725.51
     811	 2.00732	0.354095	        -1286.41	         3011.87	         1725.46
     812	 2.01253	0.346313	        -1294.27	         3019.69	         1725.42
     813	 2.01731	0.338931	        -1301.46	         3026.86	         1725.39
     814	 2.02123	0.332517	        -1307.37	         3032.75	         1725.38
     815	 2.02406	0.327427	        -1311.61	         3036.99	         1725.38
     816	 2.02579	0.323727	        -1314.17	         3039.58	          1725.4
     817	 2.02658	0.321237	        -1315.34	         3040.77	         1725.43
     818	 2.02668	0.319697	        -1315.47	         3040.91	         1725.44
     819	 2.02623	0.318923	         -1314.8	         3040.24	         1725.45
     820	 2.02537	0.318751	        -1313.49	         3038.96	         1725.47
     821	 2.02438	0.318841	        -1311.95	         3037.46	         1725.51
     822	 2.02368	 0.31865	        -1310.87	         3036.41	         1725.55
     823	 2.02365	0.317708	        -1310.82	         3036.37	         1725.55
     824	 2.02433	0.315938	        -1311.87	         3037.39	         1725.52
     825	 2.02539	 0.31371	         -1313.5	         3038.98	         1725.48
     826	 2.02643	0.311495	        -1315.07	         3040.54	         1725.47
     827	 2.02733	0.309432	        -1316.39	          3041.9	         1725.51
     828	 2.02836	0.307221	        -1317.88	         3043.44	         1725.57
     829	 2.02994	0.304383	        -1320.21	         3045.81	          1725.6
     830	 2.03233	0.300658	         -1323.8	          3049.4	          1725.6
     831	 2.03536	0.296294	        -1328.39	         3053.94	         1725.55
     832	 2.03847	0.292014	        -1333.12	          3058.6	         1725.48
     833	 2.04094	0.288705	        -1336.88	         3062.31	         1725.43
     834	 2.04221	 0.28709	         -1338.8	         3064.21	         1725.41
     835	 2.04195	0.287567	        -1338.42	         3063.83	         1725.41
     836	 2.04014	0.290202	        -1335.69	         3061.11	         1725.43
     837	   2.037	0.294741	        -1330.94	          3056.4	         1725.47
     838	 2.03293	0.300702	         -1324.8	          3050.3	          1725.5
     839	 2.02834	0.307566	         -1317.9	         3043.41	         1725.51
     840	 2.02349	0.314976	        -1310.64	         3036.14	          1725.5
     841	 2.01848	0.322758	        -1303.13	         3028.62	         1725.49
     842	 2.01345	 0.33068	        -1295.56	         3021.07	         1725.52
     843	 2.00889	0.338108	        -1288.65	         3014.23	         1725.59
     844	 2.00558	0.344053	        -1283.63	         3009.27	         1725.64
     845	 2.00408	  0.3478	        -1281.41	         3007.02	         1725.61
     846	  2.0042	0.349556	         -1281.7	          3007.2	          1725.5
     847	 2.00497	0.350433	        -1282.99	         3008.35	         1725.36
     848	  2.0051	0.351922	        -1283.32	         3008.55	         1725.24
     849	 2.00353	 0.35525	        -1281.01	          3006.2	         1725.19
     850	 1.99991	0.360789	        -1275.53	         3000.76	         1725.23
     851	 1.99485	0.367752	        -1267.82	         2993.18	         1725.35
     852	 1.98979	0.374422	        -1260.08	         2985.58	         1725.51
     853	 1.98647	0.378719	        -1254.95	         2980.61	         1725.66
     854	 1.98656	0.378695	        -1254.97	         2980.74	         1725.77
     855	 1.99114	0.373102	        -1261.83	          2987.6	         1725.77
     856	 2.00001	0.362202	        -1275.28	         3000.91	         1725.63
     857	 2.01158	0.347983	        -1292.85	         3018.28	         1725.43
     858	 2.02355	0.333294	        -1310.97	         3036.23	         1725.26
     859	 2.03383	0.320717	        -1326.48	         3051.64	         1725.16
     860	 2.04105	0.311982	        -1337.34	         3062.47	         1725.13
     861	  2.0446	0.307907	        -1342.65	          3067.8	         1725.15
     862	 2.04445	0.308604	        -1342.38	         3067.57	         1725.18
     863	 2.04088	0.313726	           -1337	         3062.22	         1725.22
     864	 2.03436	0.322675	        -1327.18	         3052.44	         1725.26
     865	 2.02552	0.334628	        -1313.86	         3039.18	         1725.32
     866	 2.01532	0.348345	        -1298.44	         3023.88	         1725.44
     867	 2.00516	0.362026	        -1283.07	         3008.64	         1725.57
     868	 1.99666	0.373649	        -1270.21	         2995.88	         1725.67
     869	 1.99099	0.381696	        -1261.68	         2987.38	          1725.7
     870	 1.98857	0.385613	        -1258.09	         2983.75	         1725.66
     871	 1.98911	0.385696	        -1258.97	         2984.56	         1725.59
     872	 1.99187	0.382792	         -1263.2	         2988.71	         1725.51
     873	 1.99598	0.377971	        -1269.41	         2994.87	         1725.46
     874	 2.00069	0.372149	         -1276.5	         3001.94	         1725.43
     875	 2.00552	0.365954	        -1283.76	         3009.18	         1725.42
     876	 2.01014	0.359837	         -1290.7	         3016.11	         1725.41
     877	 2.01429	0.354178	        -1296.94	         3022.34	          1725.4
     878	 2.01777	0.349278	        -1302.16	         3027.56	          1725.4
     879	  2.0205	0.345298	        -1306.24	         3031.65	         1725.41
     880	 2.02252	0.342215	        -1309.26	         3034.68	         1725.42
     881	 2.02401	0.339866	        -1311.48	         3036.92	         1725.44
     882	 2.02516	 0.33807	        -1313.18	         3038.63	         1725.46
     883	  2.0261	0.336675	        -1314.58	         3040.05	         1725.48
     884	 2.02703	0.335501	        -1315.95	         3041.44	         1725.49
     885	 2.02804	0.334417	        -1317.48	         3042.97	         1725.49
     886	 2.02904	0.333563	        -1319.01	         3044.46	         1725.45
     887	 2.02962	0.333404	        -1319.93	         3045.33	          1725.4
     888	 2.02927	0.334528	        -1319.44	         3044.81	         1725.36
     889	 2.02766	0.337309	        -1317.02	         3042.39	         1725.37
     890	 2.02486	0.341633	        -1312.77	         3038.19	         1725.42
     891	 2.02134	 0.34688	        -1307.42	         3032.91	         1725.49
     892	 2.01784	0.352146	        -1302.09	         3027.65	         1725.56
     893	 2.01516	0.356439	           -1298	         3023.63	         1725.64
     894	 2.01404	0.358849	        -1296.28	         3021.96	         1725.67
     895	 2.01484	0.358907	        -1297.52	         3023.17	         1725.65
     896	 2.01729	0.356942	        -1301.26	         3026.83	         1725.57
     897	 2.02055	0.353934	        -1306.24	         3031.72	         1725.49
     898	 2.02375	0.350948	        -1311.09	         3036.52	         1725.44
     899	 2.02629	 0.34871	        -1314.91	         3040.34	         1725.42
     900	 2.02789	 0.34758	        -1317.32	         3042.74	         1725.42
     901	 2.02841	0.347754	        -1318.11	         3043.51	          1725.4
     902	 2.02767	0.349434	        -1317.03	         3042.41	         1725.37
     903	  2.0255	0.352826	         -1313.8	         3039.15	         1725.35
     904	 2.02182	0.357983	        -1308.28	         3033.63	         1725.35
     905	 2.01686	0.364589	        -1300.79	         3026.19	          1725.4
     906	 2.01129	0.371797	        -1292.35	         3017.84	         1725.49
     907	 2.00615	0.378319	        -1284.55	         3010.13	         1725.57
     908	 2.00246	0.382883	        -1278.98	         3004.59	         1725.62
     909	 2.00078	0.384793	        -1276.48	         3002.07	         1725.59
     910	 2.00104	0.384113	        -1276.92	         3002.46	         1725.54
     911	 2.00276	0.381411	        -1279.55	         3005.04	         1725.49
     912	 2.00532	0.377434	        -1283.44	         3008.88	         1725.44
     913	 2.00812	 0.37291	        -1287.67	         3013.07	         1725.41
     914	 2.01073	0.368384	        -1291.59	            3017	         1725.41
     915	 2.01302	0.364066	           -1295	         3020.44	         1725.44
     916	 2.01515	0.359815	        -1298.15	         3023.63	         1725.48
     917	 2.01741	0.355336	        -1301.51	         3027.01	         1725.51
     918	 2.01999	0.350452	        -1305.36	         3030.88	         1725.52
     919	 2.02294	 0.34518	        -1309.78	          3035.3	         1725.52
     920	 2.02617	 0.33967	        -1314.66	         3040.16	          1725.5
     921	 2.02942	0.334307	        -1319.58	         3045.03	         1725.45
     922	 2.03205	0.329872	        -1323.61	         3048.97	         1725.36
     923	 2.03317	0.327436	        -1325.39	         3050.66	         1725.27
     924	 2.03195	   0.328	        -1323.62	         3048.82	         1725.21
     925	 2.02787	0.332119	        -1317.51	         3042.71	          1725.2
     926	 2.02101	0.339655	        -1307.15	         3032.41	         1725.25
     927	 2.01218	0.349561	        -1293.76	         3019.16	          1725.4
     928	 2.00312	0.359731	        -1279.95	         3005.57	         1725.63
     929	 1.99621	0.367282	        -1269.38	         2995.21	         1725.83
     930	 1.99347	0.369756	        -1265.22	          2991.1	         1725.87
     931	  1.9953	 0.36664	        -1268.11	         2993.84	         1725.73
     932	 2.00037	0.359548	        -1275.91	         3001.45	         1725.54
     933	  2.0067	 0.35086	        -1285.55	         3010.95	         1725.41
     934	 2.01273	0.342487	        -1294.64	         3019.99	         1725.35
     935	 2.01753	0.335573	        -1301.86	         3027.19	         1725.33
     936	 2.02067	0.330715	        -1306.58	         3031.91	         1725.33
     937	 2.02202	0.328159	        -1308.58	         3033.93	         1725.35
     938	 2.02165	 0.32786	        -1307.99	         3033.38	         1725.39
     939	 2.01987	 0.32949	        -1305.26	          3030.7	         1725.44
     940	 2.01708	0.332543	        -1301.05	         3026.52	         1725.47
     941	 2.01364	0.336586	        -1295.89	         3021.35	         1725.47
     942	 2.00964	0.341439	        -1289.92	         3015.37	         1725.45
     943	 2.00511	0.347053	        -1283.11	         3008.56	         1725.45
     944	  2.0002	0.353171	        -1275.71	         3001.19	         1725.48
     945	 1.99541	0.359156	        -1268.48	         2994.01	         1725.53
     946	 1.99133	0.364243	        -1262.35	         2987.89	         1725.54
     947	 1.98819	0.368101	         -1257.7	         2983.19	         1725.49
     948	 1.98564	0.371113	        -1253.95	         2979.36	         1725.41
     949	 1.98313	0.373909	        -1250.21	         2975.59	         1725.39
     950	 1.98049	0.376652	        -1246.21	         2971.63	         1725.42
     951	 1.97805	0.378902	        -1242.51	         2967.97	         1725.46
     952	 1.97619	0.380176	        -1239.72	         2965.18	         1725.47
     953	 1.97502	0.380346	        -1237.97	         2963.43	         1725.46
     954	 1.97452	 0.37942	         -1237.2	         2962.68	         1725.48
     955	 1.97477	0.377292	        -1237.53	         2963.05	         1725.51
     956	 1.97597	0.373731	        -1239.29	         2964.85	         1725.56
     957	 1.97841	0.368437	        -1242.91	         2968.51	          1725.6
     958	 1.98231	0.361205	        -1248.75	         2974.36	         1725.61
     959	  1.9876	0.352195	        -1256.72	          2982.3	         1725.57
     960	 1.99376	0.342103	        -1266.04	         2991.53	          1725.5
     961	 1.99994	0.332018	        -1275.39	         3000.81	         1725.42
     962	 2.00531	0.323016	        -1283.48	         3008.86	         1725.38
     963	  2.0094	0.315728	        -1289.61	            3015	         1725.39
     964	 2.01225	0.310185	        -1293.83	         3019.27	         1725.44
     965	  2.0142	0.306012	        -1296.71	          3022.2	         1725.49
     966	 2.01562	0.302812	        -1298.83	         3024.33	         1725.51
     967	 2.01661	0.300495	        -1300.32	         3025.81	         1725.49
     968	 2.01697	0.299287	        -1300.87	         3026.35	         1725.48
     969	 2.01652	0.299405	         -1300.2	         3025.68	         1725.48
     970	 2.01526	 0.30083	        -1298.29	         3023.78	          1725.5
     971	 2.01329	0.303398	        -1295.34	         3020.84	          1725.5
     972	 2.01073	0.306972	         -1291.5	         3016.99	         1725.49
     973	 2.00768	0.311399	        -1286.92	         3012.42	          1725.5
     974	 2.00447	  0.3163	        -1282.06	          3007.6	         1725.53
     975	 2.00149	0.321145	        -1277.61	         3003.13	         1725.52
     976	 1.99874	0.325879	        -1273.58	         2999.01	         1725.43
     977	 1.99563	0.331189	        -1268.99	         2994.35	         1725.36
     978	 1.99165	0.337652	        -1262.99	         2988.37	         1725.38
     979	 1.98712	0.344821	        -1256.08	         2981.57	         1725.49
     980	 1.98312	0.351371	        -1249.98	         2975.57	         1725.59
     981	 1.98063	0.356099	        -1246.23	         2971.84	          1725.6
     982	 1.97984	0.358774	         -1245.1	         2970.65	         1725.55
     983	 1.98028	0.359967	        -1245.81	         2971.31	          1725.5
     984	 1.98136	0.360348	        -1247.48	         2972.95	         1725.46
     985	 1.98259	0.360508	        -1249.37	         2974.78	         1725.41
     986	 1.98332	0.361178	        -1250.54	         2975.88	         1725.34
     987	 1.98289	0.363162	        -1249.94	         2975.23	         1725.29
     988	 1.98086	 0.36694	        -1246.89	         2972.19	          1725.3
     989	 1.97745	0.372266	        -1241.68	         2967.08	         1725.39
     990	 1.97364	0.377964	        -1235.82	         2961.36	         1725.54
     991	 1.97081	0.382357	         -1231.5	         2957.12	         1725.62
     992	  1.9697	0.384526	         -1229.9	         2955.45	         1725.55
     993	 1.96978	0.385096	        -1230.14	         2955.57	         1725.43
     994	 1.97009	0.385235	        -1230.63	         2956.03	          1725.4
     995	 1.97019	0.385413	        -1230.75	         2956.19	         1725.44
     996	 1.97034	0.385338	        -1230.92	         2956.41	         1725.49
     997	 1.97087	0.384616	        -1231.71	         2957.21	          1725.5
     998	 1.97179	0.383277	        -1233.12	         2958.58	         1725.45
     999	 1.97271	0.381777	        -1234.56	         2959.97	         1725.41
