    Step 	 temperature 	 pressure 	 Potential Energy 	 Kinetic Energy 	 Sum Energy

       0	 2.63768	-1.31314	        -5235.07	         3959.08	        -1275.98
       1	 2.63138	-1.27652	         -5225.7	         3949.63	        -1276.07
       2	 2.61195	-1.16484	        -5196.76	         3920.49	        -1276.27
       3	 2.57784	-0.972745	        -5145.93	         3869.32	        -1276.62
       4	 2.52653	-0.691769	        -5069.43	         3792.36	        -1277.07
       5	 2.45492	-0.311834	        -4962.51	         3684.94	        -1277.56
       6	 2.36032	0.174625	        -4820.91	         3543.04	        -1277.87
       7	 2.24262	0.764065	        -4644.13	          3366.5	        -1277.63
       8	 2.10753	 1.42907	         -4440.4	         3163.86	        -1276.55
       9	 1.96845	  2.1102	        -4230.08	         2955.23	        -1274.85
      10	 1.84368	 2.72768	         -4041.4	         2768.08	        -1273.32
      11	 1.74915	 3.21224	        -3898.93	         2626.29	        -1272.63
      12	 1.69234	 3.53073	        -3813.91	         2541.07	        -1272.85
      13	 1.67135	 3.68944	        -3783.18	         2509.59	        -1273.59
      14	 1.67835	 3.72009	        -3794.55	         2520.09	        -1274.46
      15	 1.70358	 3.66301	        -3833.13	         2557.93	         -1275.2
      16	 1.73815	  3.5557	        -3885.52	         2609.79	        -1275.73
      17	 1.77543	 3.42727	        -3941.71	          2665.7	        -1276.01
      18	  1.8114	 3.29618	        -3995.72	         2719.67	        -1276.06
      19	 1.84469	 3.17026	        -4045.53	          2769.6	        -1275.94
      20	 1.87569	 3.04969	         -4091.9	         2816.09	        -1275.81
      21	  1.9051	 2.93309	        -4136.03	         2860.21	        -1275.82
      22	 1.93273	 2.82261	        -4177.61	         2901.66	        -1275.95
      23	 1.95734	 2.72439	         -4214.7	         2938.57	        -1276.14
      24	 1.97725	 2.64594	        -4244.73	         2968.43	         -1276.3
      25	 1.99124	 2.59281	        -4265.76	         2989.42	        -1276.34
      26	 1.99932	 2.56535	        -4277.76	         3001.55	        -1276.21
      27	 2.00332	 2.55639	        -4283.48	         3007.54	        -1275.94
      28	 2.00618	 2.55362	        -4287.57	         3011.83	        -1275.74
      29	 2.01016	 2.54744	        -4293.56	         3017.81	        -1275.76
      30	 2.01556	 2.53642	        -4301.82	          3025.9	        -1275.92
      31	 2.02123	 2.52494	        -4310.46	          3034.4	        -1276.05
      32	   2.026	 2.51748	        -4317.64	         3041.56	        -1276.08
      33	 2.02965	 2.51474	        -4323.03	         3047.04	        -1275.99
      34	 2.03289	  2.5137	         -4327.8	          3051.9	        -1275.91
      35	 2.03645	 2.51136	        -4333.16	         3057.24	        -1275.92
      36	 2.04023	 2.50837	        -4338.94	          3062.9	        -1276.04
      37	 2.04325	 2.50881	        -4343.63	         3067.44	        -1276.19
      38	 2.04432	 2.51768	        -4345.35	         3069.04	        -1276.31
      39	 2.04247	 2.53887	        -4342.65	         3066.26	        -1276.38
      40	 2.03739	 2.57364	        -4334.99	         3058.64	        -1276.34
      41	 2.02993	 2.61852	        -4323.63	         3047.46	        -1276.17
      42	 2.02208	 2.66524	        -4311.67	         3035.68	        -1275.99
      43	 2.01577	 2.70555	         -4302.2	         3026.21	        -1275.99
      44	 2.01134	 2.73788	        -4295.75	         3019.57	        -1276.17
      45	 2.00753	 2.76756	         -4290.2	         3013.85	        -1276.35
      46	 2.00302	 2.79996	        -4283.47	         3007.09	        -1276.38
      47	 1.99782	 2.83493	        -4275.56	         2999.29	        -1276.27
      48	 1.99317	 2.86733	        -4268.45	         2992.32	        -1276.13
      49	 1.99068	 2.89066	        -4264.61	         2988.59	        -1276.03
      50	 1.99133	  2.9009	        -4265.63	         2989.56	        -1276.07
      51	 1.99455	 2.90028	        -4270.68	         2994.39	        -1276.29
      52	  1.9982	 2.89779	        -4276.38	         2999.86	        -1276.52
      53	 1.99999	 2.90298	        -4279.14	         3002.55	         -1276.6
      54	 1.99897	 2.91961	        -4277.57	         3001.02	        -1276.56
      55	 1.99547	 2.94618	        -4272.26	         2995.77	        -1276.49
      56	 1.99064	 2.97833	        -4264.82	         2988.52	         -1276.3
      57	 1.98695	 3.00635	        -4258.95	         2982.99	        -1275.96
      58	 1.98742	 3.01708	        -4259.69	          2983.7	        -1275.99
      59	  1.9918	 3.01148	        -4266.69	         2990.26	        -1276.43
      60	 1.99637	  3.0055	        -4273.82	         2997.11	        -1276.71
      61	  1.9981	 3.01109	        -4276.49	         2999.71	        -1276.78
      62	 1.99601	  3.0318	        -4273.35	         2996.57	        -1276.78
      63	 1.99023	  3.0668	        -4264.63	         2987.91	        -1276.72
      64	 1.98214	 3.11074	        -4252.18	         2975.77	        -1276.41
      65	 1.97548	  3.1484	        -4241.67	         2965.79	        -1275.88
      66	  1.9748	 3.15976	        -4240.65	         2964.76	        -1275.88
      67	  1.9802	 3.14446	        -4249.11	         2972.86	        -1276.25
      68	 1.98824	 3.11723	        -4261.29	         2984.92	        -1276.37
      69	 1.99672	 3.08652	        -4274.01	         2997.64	        -1276.36
      70	 2.00483	 3.05562	        -4286.21	         3009.81	        -1276.41
      71	  2.0117	 3.02859	        -4296.63	         3020.12	        -1276.51
      72	 2.01614	 3.01096	        -4303.38	         3026.78	         -1276.6
      73	 2.01715	 3.00723	        -4304.94	         3028.28	        -1276.66
      74	 2.01409	 3.02003	         -4300.4	          3023.7	        -1276.71
      75	 2.00683	 3.05008	        -4289.45	         3012.81	        -1276.64
      76	 1.99646	 3.09288	        -4273.64	         2997.26	        -1276.39
      77	 1.98571	 3.13681	        -4257.22	         2981.13	        -1276.09
      78	 1.97769	 3.16855	        -4245.05	         2969.09	        -1275.96
      79	 1.97413	  3.1809	        -4239.71	         2963.75	        -1275.96
      80	 1.97554	 3.17207	        -4241.78	         2965.87	        -1275.91
      81	  1.9821	 3.14118	        -4251.68	         2975.71	        -1275.97
      82	 1.99272	 3.09274	        -4267.87	         2991.64	        -1276.23
      83	  2.0046	 3.03897	        -4285.92	         3009.46	        -1276.46
      84	   2.015	 2.99162	        -4301.57	         3025.06	        -1276.51
      85	 2.02285	 2.95548	        -4313.25	         3036.84	        -1276.41
      86	 2.02854	 2.92933	        -4321.66	         3045.37	        -1276.28
      87	 2.03291	 2.91009	        -4328.15	         3051.93	        -1276.22
      88	  2.0363	 2.89654	         -4333.3	         3057.01	        -1276.29
      89	 2.03804	 2.89157	        -4336.04	         3059.61	        -1276.42
      90	 2.03694	     2.9	        -4334.46	         3057.98	        -1276.48
      91	 2.03262	 2.92329	        -4327.89	         3051.49	         -1276.4
      92	 2.02605	 2.95707	        -4317.85	         3041.63	        -1276.22
      93	 2.01913	 2.99298	        -4307.33	         3031.26	        -1276.07
      94	 2.01341	 3.02417	        -4298.75	         3022.67	        -1276.08
      95	 2.00897	 3.04982	         -4292.2	         3016.01	        -1276.19
      96	 2.00495	 3.07321	        -4286.26	         3009.99	        -1276.27
      97	 2.00067	  3.0969	        -4279.85	         3003.56	        -1276.29
      98	   1.996	 3.12116	        -4272.84	         2996.56	        -1276.28
      99	 1.99114	 3.14512	        -4265.56	         2989.27	        -1276.29
     100	 1.98631	 3.16796	        -4258.32	         2982.03	        -1276.29
     101	 1.98179	 3.18867	        -4251.52	         2975.24	        -1276.28
     102	 1.97805	  3.2053	        -4245.88	         2969.64	        -1276.24
     103	 1.97571	 3.21541	        -4242.35	         2966.13	        -1276.22
     104	 1.97524	 3.21704	        -4241.65	         2965.43	        -1276.23
     105	 1.97679	 3.20954	        -4244.01	         2967.75	        -1276.27
     106	 1.98021	  3.1935	        -4249.17	         2972.87	        -1276.29
     107	 1.98532	 3.16953	        -4256.85	         2980.54	        -1276.31
     108	 1.99191	 3.13831	        -4266.79	         2990.42	        -1276.37
     109	 1.99934	 3.10239	        -4278.03	         3001.57	        -1276.46
     110	  2.0068	 3.06542	         -4289.2	         3012.76	        -1276.44
     111	 2.01423	 3.02805	         -4300.2	          3023.9	         -1276.3
     112	 2.02237	 2.98743	        -4312.32	         3036.11	         -1276.2
     113	 2.03161	 2.94254	        -4326.21	         3049.97	        -1276.24
     114	 2.04127	 2.89698	        -4340.79	         3064.47	        -1276.32
     115	 2.05009	 2.85655	        -4354.13	         3077.69	        -1276.44
     116	 2.05649	 2.82797	        -4363.91	          3087.3	        -1276.61
     117	 2.05858	 2.81926	         -4367.2	         3090.43	        -1276.77
     118	 2.05494	 2.83647	        -4361.71	         3084.97	        -1276.74
     119	 2.04595	 2.87793	        -4347.97	         3071.49	        -1276.48
     120	  2.0341	 2.93301	        -4329.89	         3053.71	        -1276.17
     121	  2.0224	 2.98869	        -4312.19	         3036.16	        -1276.02
     122	 2.01266	  3.0372	        -4297.58	         3021.55	        -1276.03
     123	 2.00522	 3.07684	         -4286.5	         3010.39	        -1276.11
     124	 1.99956	 3.10935	        -4278.16	         3001.91	        -1276.25
     125	 1.99441	 3.13965	        -4270.66	         2994.18	        -1276.48
     126	  1.9878	 3.17571	        -4260.97	         2984.26	        -1276.71
     127	 1.97796	 3.22474	        -4246.27	          2969.5	        -1276.78
     128	 1.96478	 3.28712	        -4226.31	         2949.73	        -1276.58
     129	  1.9505	 3.35335	        -4204.55	         2928.31	        -1276.24
     130	 1.93857	 3.40865	        -4186.45	         2910.42	        -1276.02
     131	 1.93126	  3.4433	        -4175.52	         2899.45	        -1276.07
     132	  1.9285	 3.45756	        -4171.51	         2895.31	         -1276.2
     133	 1.92926	 3.45575	        -4172.68	         2896.46	        -1276.22
     134	 1.93314	 3.43954	        -4178.42	         2902.26	        -1276.15
     135	 1.94038	 3.40794	        -4189.26	         2913.14	        -1276.13
     136	 1.95085	  3.3618	        -4205.08	         2928.84	        -1276.24
     137	 1.96319	 3.30718	        -4223.76	         2947.34	        -1276.42
     138	 1.97551	 3.25238	        -4242.36	         2965.83	        -1276.52
     139	 1.98644	 3.20347	        -4258.79	         2982.22	        -1276.57
     140	 1.99516	 3.16406	         -4271.9	          2995.3	         -1276.6
     141	 2.00121	 3.13644	        -4280.99	         3004.38	        -1276.61
     142	 2.00452	 3.12129	        -4285.92	         3009.34	        -1276.57
     143	 2.00534	 3.11762	        -4287.13	         3010.57	        -1276.56
     144	 2.00384	 3.12467	        -4284.92	         3008.32	        -1276.61
     145	 1.99996	 3.14265	        -4279.09	          3002.5	        -1276.59
     146	 1.99419	  3.1693	        -4270.32	         2993.85	        -1276.47
     147	 1.98758	 3.19941	        -4260.37	         2983.93	        -1276.43
     148	 1.98068	 3.23016	           -4250	         2973.59	        -1276.42
     149	 1.97389	 3.25961	        -4239.66	          2963.4	        -1276.26
     150	 1.96846	 3.28197	        -4231.33	         2955.26	        -1276.07
     151	 1.96596	 3.29054	        -4227.49	         2951.49	        -1275.99
     152	 1.96694	 3.28307	        -4229.05	         2952.98	        -1276.07
     153	 1.97061	 3.26329	        -4234.72	         2958.48	        -1276.24
     154	 1.97519	 3.23898	        -4241.77	         2965.34	        -1276.42
     155	 1.97889	 3.21801	         -4247.4	          2970.9	         -1276.5
     156	 1.98083	 3.20449	        -4250.27	          2973.8	        -1276.47
     157	 1.98115	 3.19807	         -4250.7	         2974.29	        -1276.41
     158	  1.9804	 3.19669	        -4249.56	         2973.17	        -1276.39
     159	 1.97882	 3.19946	        -4247.22	         2970.79	        -1276.43
     160	  1.9763	 3.20671	        -4243.46	         2967.01	        -1276.45
     161	 1.97286	 3.21826	        -4238.26	         2961.86	        -1276.41
     162	 1.96919	  3.2311	        -4232.62	         2956.34	        -1276.28
     163	 1.96662	 3.23947	        -4228.62	         2952.49	        -1276.13
     164	  1.9667	 3.23707	        -4228.61	         2952.61	           -1276
     165	 1.97054	 3.21931	        -4234.34	         2958.37	        -1275.97
     166	 1.97822	 3.18596	        -4245.97	         2969.89	        -1276.08
     167	 1.98833	 3.14292	        -4261.36	         2985.06	         -1276.3
     168	 1.99847	 3.10038	        -4276.77	         3000.27	         -1276.5
     169	 2.00643	 3.06769	        -4288.77	          3012.2	        -1276.57
     170	 2.01116	 3.04923	        -4295.81	          3019.3	        -1276.52
     171	 2.01289	 3.04417	        -4298.31	          3021.9	        -1276.41
     172	 2.01249	 3.04888	        -4297.65	          3021.3	        -1276.35
     173	 2.01063	 3.06051	        -4294.88	         3018.51	        -1276.37
     174	 2.00745	  3.0784	        -4290.11	         3013.73	        -1276.37
     175	 2.00324	 3.10119	         -4283.7	         3007.41	        -1276.29
     176	 1.99892	 3.12471	        -4277.14	         3000.94	         -1276.2
     177	 1.99546	 3.14464	        -4271.95	         2995.75	        -1276.19
     178	 1.99308	 3.15986	        -4268.45	         2992.18	        -1276.27
     179	 1.99122	 3.17241	        -4265.76	          2989.4	        -1276.36
     180	  1.9892	 3.18498	        -4262.77	         2986.37	         -1276.4
     181	 1.98679	 3.19836	        -4259.11	         2982.74	        -1276.36
     182	 1.98447	  3.2104	        -4255.54	         2979.27	        -1276.27
     183	 1.98324	 3.21699	         -4253.6	         2977.43	        -1276.17
     184	 1.98402	 3.21426	        -4254.75	          2978.6	        -1276.15
     185	 1.98687	 3.20183	        -4259.13	         2982.87	        -1276.26
     186	 1.99067	 3.18441	        -4264.98	         2988.57	        -1276.41
     187	 1.99384	 3.16861	         -4269.8	         2993.31	        -1276.49
     188	 1.99541	 3.15835	        -4272.15	         2995.68	        -1276.47
     189	 1.99535	 3.15384	           -4272	         2995.59	        -1276.41
     190	 1.99411	 3.15323	        -4270.06	         2993.73	        -1276.34
     191	 1.99245	 3.15353	        -4267.48	         2991.24	        -1276.24
     192	 1.99129	 3.15105	        -4265.67	         2989.49	        -1276.17
     193	 1.99136	 3.14281	        -4265.75	          2989.6	        -1276.14
     194	 1.99309	  3.1273	        -4268.32	          2992.2	        -1276.12
     195	 1.99666	 3.10385	        -4273.69	         2997.55	        -1276.13
     196	 2.00172	  3.0739	        -4281.37	         3005.13	        -1276.24
     197	 2.00711	 3.04242	        -4289.56	         3013.22	        -1276.34
     198	 2.01169	 3.01438	        -4296.44	          3020.1	        -1276.33
     199	 2.01515	 2.99125	        -4301.56	         3025.28	        -1276.28
     200	 2.01767	 2.97238	        -4305.32	         3029.07	        -1276.25
     201	 2.01938	 2.95765	        -4307.88	         3031.63	        -1276.26
     202	 2.02014	 2.94784	        -4309.04	         3032.77	        -1276.27
     203	 2.01992	 2.94335	         -4308.7	         3032.45	        -1276.25
     204	 2.01892	 2.94332	        -4307.19	         3030.95	        -1276.24
     205	 2.01744	 2.94649	        -4304.96	         3028.72	        -1276.24
     206	 2.01572	 2.95172	        -4302.38	         3026.14	        -1276.23
     207	 2.01412	 2.95748	        -4299.96	         3023.74	        -1276.21
     208	 2.01308	 2.96181	        -4298.39	         3022.18	        -1276.21
     209	 2.01289	 2.96346	        -4298.14	          3021.9	        -1276.23
     210	  2.0135	 2.96259	        -4299.12	         3022.82	         -1276.3
     211	  2.0143	 2.96141	        -4300.46	         3024.02	        -1276.45
     212	 2.01408	  2.9647	        -4300.26	         3023.68	        -1276.58
     213	 2.01182	 2.97638	        -4296.84	         3020.29	        -1276.56
     214	  2.0079	 2.99443	        -4290.79	         3014.42	        -1276.38
     215	 2.00406	 3.01111	        -4284.85	         3008.65	        -1276.19
     216	 2.00213	 3.01837	        -4281.86	         3005.76	        -1276.11
     217	 2.00312	 3.01195	         -4283.3	         3007.24	        -1276.06
     218	 2.00754	 2.98994	        -4289.84	         3013.88	        -1275.96
     219	 2.01605	 2.94984	        -4302.54	         3026.64	         -1275.9
     220	 2.02855	  2.8922	        -4321.44	         3045.39	        -1276.05
     221	 2.04311	 2.82565	        -4343.56	         3067.23	        -1276.32
     222	 2.05664	 2.76369	        -4364.08	         3087.53	        -1276.55
     223	 2.06631	 2.71854	        -4378.73	         3102.02	        -1276.71
     224	  2.0702	 2.69855	        -4384.63	         3107.86	        -1276.77
     225	 2.06753	 2.70739	        -4380.58	         3103.85	        -1276.73
     226	 2.05868	 2.74353	         -4367.2	         3090.58	        -1276.61
     227	 2.04506	 2.80097	        -4346.62	         3070.16	        -1276.46
     228	 2.02861	  2.8711	         -4321.8	         3045.48	        -1276.32
     229	 2.01142	 2.94452	        -4295.88	         3019.69	        -1276.19
     230	 1.99567	 3.01154	        -4272.09	         2996.07	        -1276.02
     231	 1.98401	 3.06093	        -4254.32	         2978.57	        -1275.75
     232	 1.97962	 3.07937	         -4247.5	         2971.98	        -1275.51
     233	 1.98484	 3.05692	        -4255.46	         2979.83	        -1275.63
     234	 1.99841	 2.99897	        -4276.34	         3000.17	        -1276.16
     235	 2.01523	 2.92739	        -4302.05	          3025.4	        -1276.64
     236	 2.03007	 2.86418	         -4324.5	         3047.67	        -1276.83
     237	  2.0401	 2.82113	        -4339.53	         3062.71	        -1276.81
     238	  2.0447	 2.80103	        -4346.31	         3069.62	         -1276.7
     239	 2.04456	 2.80131	        -4345.97	         3069.41	        -1276.57
     240	 2.04081	 2.81733	        -4340.25	         3063.78	        -1276.47
     241	 2.03453	 2.84459	        -4330.74	         3054.36	        -1276.38
     242	 2.02687	 2.87823	        -4319.11	         3042.87	        -1276.24
     243	 2.01938	 2.91152	        -4307.71	         3031.63	        -1276.08
     244	 2.01364	 2.93757	           -4299	         3023.02	        -1275.98
     245	  2.0107	 2.95182	        -4294.55	         3018.62	        -1275.93
     246	 2.01111	 2.95181	        -4295.17	         3019.23	        -1275.94
     247	 2.01475	 2.93765	        -4300.73	         3024.68	        -1276.04
     248	 2.02052	 2.91362	        -4309.56	         3033.34	        -1276.22
     249	 2.02673	  2.8868	        -4319.01	         3042.65	        -1276.36
     250	 2.03198	 2.86318	        -4326.93	         3050.53	         -1276.4
     251	 2.03577	 2.84513	        -4332.61	         3056.22	        -1276.39
     252	 2.03798	 2.83326	        -4336.02	         3059.54	        -1276.48
     253	 2.03786	 2.83096	        -4335.99	         3059.35	        -1276.64
     254	 2.03442	 2.84282	         -4330.8	          3054.2	         -1276.6
     255	 2.02844	 2.86607	        -4321.51	         3045.22	        -1276.29
     256	 2.02277	 2.88868	        -4312.76	         3036.72	        -1276.04
     257	 2.01978	 2.90078	        -4308.32	         3032.23	        -1276.09
     258	 2.01933	 2.90319	        -4307.84	         3031.56	        -1276.28
     259	  2.0197	  2.9029	        -4308.59	         3032.12	        -1276.47
     260	 2.01907	 2.90718	        -4307.78	         3031.16	        -1276.62
     261	 2.01625	 2.92074	        -4303.57	         3026.93	        -1276.64
     262	 2.01128	 2.94348	           -4296	         3019.48	        -1276.51
     263	 2.00545	 2.97009	        -4287.11	         3010.74	        -1276.37
     264	 2.00013	 2.99475	        -4279.12	         3002.76	        -1276.36
     265	 1.99562	 3.01638	        -4272.41	            2996	        -1276.41
     266	  1.9916	 3.03646	        -4266.35	         2989.96	        -1276.39
     267	 1.98812	 3.05454	        -4261.11	         2984.75	        -1276.36
     268	 1.98542	 3.06953	        -4257.07	         2980.69	        -1276.39
     269	 1.98333	 3.08207	        -4253.99	         2977.56	        -1276.43
     270	 1.98159	  3.0933	        -4251.37	         2974.95	        -1276.42
     271	 1.98013	 3.10319	         -4249.2	         2972.76	        -1276.44
     272	 1.97869	  3.1125	        -4247.12	          2970.6	        -1276.53
     273	  1.9765	 3.12429	         -4243.9	         2967.31	        -1276.59
     274	 1.97317	 3.14018	        -4238.81	         2962.32	        -1276.49
     275	 1.96972	 3.15595	         -4233.4	         2957.14	        -1276.27
     276	 1.96822	 3.16284	        -4230.97	         2954.89	        -1276.08
     277	 1.97039	  3.1537	        -4234.23	         2958.15	        -1276.08
     278	 1.97626	 3.12853	        -4243.16	         2966.95	        -1276.21
     279	 1.98458	 3.09285	        -4255.73	         2979.44	        -1276.29
     280	 1.99429	 3.05132	        -4270.26	         2993.99	        -1276.26
     281	 2.00497	 3.00577	        -4286.26	         3010.02	        -1276.23
     282	 2.01634	 2.95781	        -4303.33	         3027.08	        -1276.25
     283	 2.02762	 2.91095	        -4320.34	         3043.99	        -1276.35
     284	 2.03734	 2.87133	        -4335.07	         3058.57	         -1276.5
     285	 2.04373	 2.84639	        -4344.77	         3068.16	        -1276.61
     286	 2.04555	 2.84118	        -4347.47	         3070.89	        -1276.59
     287	 2.04287	 2.85514	        -4343.31	         3066.86	        -1276.44
     288	 2.03706	 2.88231	        -4334.41	         3058.15	        -1276.26
     289	 2.02993	 2.91482	        -4323.63	         3047.45	        -1276.18
     290	 2.02257	 2.94782	        -4312.66	         3036.42	        -1276.24
     291	 2.01493	 2.98148	        -4301.29	         3024.96	        -1276.33
     292	 2.00682	 3.01663	        -4289.06	         3012.79	        -1276.27
     293	 1.99926	 3.04893	        -4277.56	         3001.45	        -1276.12
     294	 1.99388	 3.07131	        -4269.48	         2993.38	         -1276.1
     295	 1.99114	 3.08183	        -4265.54	         2989.27	        -1276.27
     296	 1.98991	 3.08526	        -4263.88	         2987.42	        -1276.46
     297	 1.98873	 3.08771	        -4262.17	         2985.66	        -1276.51
     298	 1.98738	 3.09022	        -4260.01	         2983.63	        -1276.38
     299	 1.98709	 3.08758	        -4259.45	          2983.2	        -1276.25
     300	   1.989	 3.07508	        -4262.35	         2986.05	         -1276.3
     301	 1.99283	  3.0541	        -4268.24	          2991.8	        -1276.44
     302	 1.99745	 3.02975	        -4275.25	         2998.74	        -1276.52
     303	 2.00216	 3.00542	        -4282.26	          3005.8	        -1276.45
     304	 2.00728	 2.98017	        -4289.84	         3013.49	        -1276.35
     305	 2.01326	 2.95241	        -4298.85	         3022.46	         -1276.4
     306	 2.01928	 2.92591	        -4308.04	         3031.49	        -1276.55
     307	  2.0236	 2.90822	        -4314.59	         3037.96	        -1276.63
     308	 2.02506	 2.90404	        -4316.73	         3040.15	        -1276.58
     309	 2.02362	 2.91317	         -4314.5	            3038	        -1276.51
     310	 2.01975	 2.93338	        -4308.67	         3032.19	        -1276.48
     311	 2.01367	  2.9634	        -4299.56	         3023.06	         -1276.5
     312	 2.00532	 3.00303	        -4287.03	         3010.54	        -1276.49
     313	 1.99506	 3.05038	        -4271.54	         2995.15	        -1276.39
     314	 1.98418	  3.0997	        -4255.04	         2978.83	        -1276.21
     315	 1.97486	  3.1417	        -4240.87	         2964.85	        -1276.02
     316	 1.96936	 3.16667	        -4232.56	          2956.6	        -1275.96
     317	 1.96861	 3.17058	        -4231.57	         2955.48	         -1276.1
     318	 1.97181	 3.15692	        -4236.54	         2960.28	        -1276.26
     319	 1.97756	 3.13166	        -4245.26	          2968.9	        -1276.36
     320	 1.98488	 3.09909	        -4256.26	         2979.89	        -1276.37
     321	 1.99338	 3.06124	        -4268.99	         2992.63	        -1276.36
     322	 2.00261	 3.02015	        -4282.93	         3006.48	        -1276.46
     323	 2.01126	 2.98154	        -4296.11	         3019.45	        -1276.66
     324	 2.01717	 2.95464	        -4305.14	         3028.32	        -1276.82
     325	 2.01876	 2.94635	        -4307.47	          3030.7	        -1276.77
     326	 2.01645	 2.95502	        -4303.74	         3027.23	        -1276.51
     327	 2.01248	 2.97121	        -4297.56	         3021.28	        -1276.28
     328	 2.00905	  2.9857	        -4292.34	         3016.14	         -1276.2
     329	   2.007	 2.99491	        -4289.28	         3013.06	        -1276.23
     330	 2.00608	 2.99962	        -4287.96	         3011.68	        -1276.28
     331	  2.0057	 3.00191	        -4287.44	         3011.11	        -1276.33
     332	 2.00535	 3.00362	        -4286.96	         3010.59	        -1276.37
     333	 2.00477	 3.00573	        -4286.06	         3009.71	        -1276.35
     334	 2.00428	  3.0069	        -4285.21	         3008.98	        -1276.23
     335	 2.00518	 3.00186	        -4286.38	         3010.34	        -1276.04
     336	 2.00914	  2.9837	        -4292.22	         3016.28	        -1275.94
     337	   2.017	 2.94918	        -4304.04	         3028.05	        -1275.99
     338	 2.02808	  2.9013	        -4320.85	         3044.69	        -1276.17
     339	 2.04039	 2.84863	        -4339.59	         3063.15	        -1276.44
     340	 2.05109	 2.80324	        -4355.89	         3079.19	        -1276.69
     341	 2.05755	 2.77634	        -4365.71	         3088.88	        -1276.83
     342	 2.05833	 2.77402	         -4366.9	         3090.06	        -1276.84
     343	 2.05323	 2.79718	        -4359.19	          3082.4	        -1276.79
     344	 2.04293	 2.84304	        -4343.62	         3066.95	        -1276.67
     345	 2.02883	 2.90567	        -4322.29	          3045.8	        -1276.49
     346	 2.01304	 2.97613	        -4298.38	         3022.12	        -1276.26
     347	 1.99804	 3.04375	        -4275.72	         2999.62	         -1276.1
     348	 1.98565	 3.10048	         -4257.1	         2981.04	        -1276.06
     349	 1.97663	 3.14289	        -4243.59	         2967.51	        -1276.08
     350	 1.97102	 3.17039	        -4235.22	          2959.1	        -1276.12
     351	 1.96852	  3.1839	        -4231.51	         2955.34	        -1276.17
     352	 1.96857	 3.18542	        -4231.66	         2955.42	        -1276.25
     353	 1.97026	  3.1785	        -4234.32	         2957.95	        -1276.38
     354	  1.9722	 3.16881	        -4237.38	         2960.87	        -1276.51
     355	 1.97309	  3.1619	        -4238.74	         2962.19	        -1276.55
     356	 1.97243	 3.15987	        -4237.69	         2961.21	        -1276.48
     357	 1.97082	 3.16042	        -4235.14	          2958.8	        -1276.34
     358	 1.96966	 3.15809	         -4233.2	         2957.05	        -1276.15
     359	 1.97071	 3.14576	        -4234.64	         2958.63	        -1276.01
     360	 1.97524	 3.11832	        -4241.46	         2965.43	        -1276.03
     361	 1.98301	 3.07696	        -4253.29	         2977.07	        -1276.21
     362	  1.9924	 3.02878	        -4267.54	         2991.16	        -1276.39
     363	 2.00176	 2.98118	        -4281.63	         3005.21	        -1276.43
     364	 2.01046	 2.93728	        -4294.66	         3018.25	        -1276.41
     365	 2.01822	 2.89845	        -4306.39	         3029.89	         -1276.5
     366	 2.02397	 2.86959	        -4315.17	         3038.52	        -1276.66
     367	 2.02617	 2.85746	        -4318.52	         3041.81	        -1276.71
     368	 2.02411	 2.86489	        -4315.36	         3038.73	        -1276.63
     369	 2.01836	 2.88941	        -4306.58	          3030.1	        -1276.48
     370	 2.01023	 2.92528	        -4294.24	         3017.91	        -1276.33
     371	 2.00128	 2.96584	        -4280.71	         3004.48	        -1276.23
     372	 1.99267	 3.00595	        -4267.77	         2991.56	        -1276.21
     373	 1.98497	 3.04301	        -4256.26	         2980.02	        -1276.23
     374	 1.97832	  3.0763	        -4246.32	         2970.04	        -1276.28
     375	 1.97264	 3.10591	        -4237.85	         2961.52	        -1276.33
     376	 1.96767	 3.13265	         -4230.5	         2954.07	        -1276.43
     377	 1.96268	 3.15935	        -4223.12	         2946.58	        -1276.54
     378	 1.95705	 3.18877	         -4214.6	         2938.13	        -1276.46
     379	 1.95182	 3.21672	        -4206.46	          2930.3	        -1276.16
     380	 1.94965	 3.23189	           -4203	         2927.03	        -1275.97
     381	 1.95205	 3.22762	        -4206.73	         2930.63	         -1276.1
     382	 1.95779	 3.20917	        -4215.58	         2939.25	        -1276.32
     383	 1.96458	 3.18602	        -4225.87	         2949.43	        -1276.44
     384	 1.97085	 3.16429	         -4235.3	         2958.84	        -1276.47
     385	 1.97617	 3.14578	        -4243.22	         2966.82	         -1276.4
     386	 1.98107	 3.12844	        -4250.44	         2974.17	        -1276.27
     387	  1.9867	 3.10758	        -4258.77	         2982.61	        -1276.16
     388	 1.99401	 3.07935	        -4269.74	         2993.58	        -1276.16
     389	 2.00303	 3.04389	        -4283.35	          3007.1	        -1276.24
     390	 2.01282	 3.00526	        -4298.17	          3021.8	        -1276.37
     391	 2.02198	 2.96945	        -4312.04	         3035.54	         -1276.5
     392	   2.029	 2.94279	        -4322.69	         3046.06	        -1276.63
     393	 2.03245	 2.93115	        -4327.98	         3051.24	        -1276.74
     394	 2.03127	 2.93889	        -4326.25	         3049.46	        -1276.78
     395	 2.02516	  2.9671	           -4317	          3040.3	        -1276.71
     396	 2.01523	 3.01123	        -4301.86	          3025.4	        -1276.45
     397	 2.00423	  3.0598	        -4285.05	          3008.9	        -1276.14
     398	 1.99515	 3.09997	        -4271.37	         2995.29	        -1276.07
     399	 1.98895	 3.12774	        -4262.22	         2985.99	        -1276.24
     400	 1.98456	 3.14775	        -4255.75	          2979.4	        -1276.35
     401	 1.98096	 3.16404	        -4250.35	            2974	        -1276.35
     402	 1.97801	 3.17694	        -4245.92	         2969.58	        -1276.34
     403	 1.97586	  3.1859	        -4242.69	         2966.36	        -1276.33
     404	  1.9747	 3.19038	        -4240.88	         2964.61	        -1276.27
     405	 1.97506	 3.18821	        -4241.33	         2965.15	        -1276.17
     406	 1.97759	 3.17663	        -4245.11	         2968.94	        -1276.17
     407	 1.98207	 3.15639	        -4251.96	         2975.67	        -1276.28
     408	  1.9872	 3.13303	        -4259.79	         2983.36	        -1276.43
     409	 1.99134	  3.1133	        -4266.08	         2989.58	         -1276.5
     410	 1.99371	 3.10064	        -4269.56	         2993.13	        -1276.43
     411	 1.99486	 3.09292	        -4271.12	         2994.86	        -1276.26
     412	  1.9963	 3.08416	        -4273.14	         2997.01	        -1276.13
     413	 1.99918	 3.06981	        -4277.46	         3001.34	        -1276.13
     414	  2.0035	 3.05015	        -4284.07	         3007.82	        -1276.25
     415	 2.00804	 3.03034	        -4291.07	         3014.62	        -1276.46
     416	  2.0108	 3.01857	         -4295.4	         3018.77	        -1276.64
     417	 2.01023	 3.02138	        -4294.57	          3017.9	        -1276.67
     418	 2.00613	 3.03929	        -4288.31	         3011.76	        -1276.55
     419	 1.99987	 3.06656	        -4278.72	         3002.37	        -1276.35
     420	 1.99359	   3.094	        -4269.15	         2992.95	        -1276.19
     421	 1.98903	 3.11411	        -4262.26	          2986.1	        -1276.16
     422	  1.9868	  3.1241	        -4258.95	         2982.76	        -1276.18
     423	 1.98676	 3.12427	        -4258.95	         2982.71	        -1276.25
     424	 1.98825	 3.11703	         -4261.3	         2984.93	        -1276.37
     425	 1.99012	 3.10691	        -4264.24	         2987.74	        -1276.51
     426	 1.99122	 3.09875	        -4265.97	         2989.39	        -1276.58
     427	  1.9911	 3.09461	        -4265.75	         2989.21	        -1276.54
     428	 1.99036	 3.09225	         -4264.5	          2988.1	         -1276.4
     429	  1.9907	 3.08523	        -4264.79	         2988.61	        -1276.18
     430	 1.99427	 3.06487	        -4270.02	         2993.97	        -1276.05
     431	 2.00217	  3.0269	        -4281.94	         3005.81	        -1276.13
     432	 2.01359	 2.97511	        -4299.22	         3022.94	        -1276.27
     433	 2.02671	  2.9172	        -4319.08	         3042.63	        -1276.44
     434	  2.0392	 2.86299	        -4338.02	         3061.37	        -1276.65
     435	 2.04852	 2.82342	        -4352.12	         3075.34	        -1276.79
     436	  2.0528	  2.8064	        -4358.58	         3081.76	        -1276.82
     437	 2.05126	 2.81512	        -4356.26	         3079.45	        -1276.81
     438	 2.04398	 2.84915	        -4345.27	         3068.54	        -1276.73
     439	 2.03212	 2.90359	        -4327.23	         3050.74	        -1276.49
     440	 2.01837	 2.96693	        -4306.25	         3030.12	        -1276.13
     441	 2.00643	 3.02319	        -4288.06	          3012.2	        -1275.86
     442	 1.99894	 3.06048	        -4276.85	         3000.97	        -1275.88
     443	 1.99602	 3.07786	        -4272.65	         2996.59	        -1276.07
     444	 1.99607	 3.08155	        -4272.86	         2996.67	        -1276.19
     445	 1.99782	 3.07663	        -4275.48	          2999.3	        -1276.19
     446	 2.00098	 3.06421	        -4280.19	         3004.02	        -1276.17
     447	 2.00538	 3.04508	         -4286.9	         3010.63	        -1276.27
     448	 2.01004	 3.02373	        -4294.07	         3017.62	        -1276.45
     449	 2.01337	 3.00721	        -4299.17	         3022.61	        -1276.56
     450	 2.01445	 2.99967	        -4300.74	         3024.23	        -1276.51
     451	 2.01372	 2.99936	        -4299.54	         3023.14	        -1276.39
     452	 2.01237	 3.00145	        -4297.44	         3021.12	        -1276.32
     453	 2.01145	 3.00185	        -4295.97	         3019.74	        -1276.23
     454	 2.01204	 2.99641	        -4296.73	         3020.63	         -1276.1
     455	 2.01517	 2.98077	         -4301.4	         3025.31	        -1276.09
     456	  2.0208	 2.95524	        -4309.94	         3033.76	        -1276.18
     457	 2.02783	 2.92483	        -4320.59	         3044.31	        -1276.27
     458	 2.03484	  2.8956	        -4331.23	         3054.82	        -1276.41
     459	    2.04	 2.87512	        -4339.19	         3062.56	        -1276.63
     460	  2.0411	 2.87277	        -4341.02	         3064.22	        -1276.81
     461	  2.0365	 2.89543	        -4334.13	         3057.32	        -1276.81
     462	 2.02625	 2.94264	        -4318.59	         3041.94	        -1276.64
     463	 2.01217	 3.00639	        -4297.22	         3020.81	        -1276.41
     464	  1.9969	 3.07504	        -4274.11	         2997.91	         -1276.2
     465	 1.98296	 3.13747	        -4253.08	         2977.01	        -1276.07
     466	 1.97208	  3.1858	        -4236.72	         2960.67	        -1276.05
     467	 1.96491	 3.21654	        -4226.04	         2949.93	        -1276.11
     468	 1.96124	 3.23018	        -4220.63	         2944.43	         -1276.2
     469	 1.96054	 3.22896	        -4219.58	         2943.37	        -1276.21
     470	 1.96284	   3.213	        -4222.94	         2946.82	        -1276.12
     471	 1.96865	 3.18053	        -4231.67	         2955.53	        -1276.14
     472	 1.97745	 3.13424	        -4245.08	         2968.74	        -1276.34
     473	 1.98713	 3.08382	        -4259.82	         2983.25	        -1276.56
     474	  1.9953	 3.03977	        -4272.19	         2995.51	        -1276.68
     475	 2.00061	 3.00815	        -4280.17	         3003.48	        -1276.69
     476	 2.00295	  2.9899	        -4283.58	         3006.99	         -1276.6
     477	 2.00352	 2.98056	        -4284.22	         3007.85	        -1276.37
     478	 2.00468	 2.97075	        -4285.74	         3009.58	        -1276.15
     479	 2.00848	 2.95183	        -4291.48	         3015.29	        -1276.19
     480	 2.01462	 2.92499	        -4301.02	         3024.49	        -1276.53
     481	 2.02005	 2.90277	        -4309.56	         3032.63	        -1276.93
     482	 2.02106	 2.90024	         -4311.3	         3034.15	        -1277.15
     483	 2.01557	 2.92551	        -4303.04	         3025.92	        -1277.12
     484	 2.00418	  2.9759	        -4285.66	         3008.83	        -1276.83
     485	 1.99008	 3.03803	        -4264.05	         2987.68	        -1276.37
     486	 1.97775	 3.09288	        -4245.25	         2969.19	        -1276.05
     487	 1.97043	 3.12695	        -4234.18	          2958.2	        -1275.97
     488	 1.96903	 3.13642	        -4232.11	         2956.11	           -1276
     489	  1.9729	 3.12372	        -4238.07	         2961.91	        -1276.15
     490	 1.98013	 3.09658	        -4249.15	         2972.76	        -1276.39
     491	 1.98808	 3.06615	        -4261.25	         2984.68	        -1276.56
     492	 1.99477	 3.04103	        -4271.26	         2994.71	        -1276.55
     493	 1.99986	 3.02282	        -4278.78	         3002.35	        -1276.43
     494	 2.00394	 3.00918	        -4284.88	         3008.47	        -1276.41
     495	 2.00704	 3.00024	        -4289.56	         3013.12	        -1276.45
     496	 2.00871	 2.99805	        -4292.04	         3015.63	        -1276.41
     497	 2.00903	 3.00218	        -4292.45	          3016.1	        -1276.34
     498	  2.0083	 3.01101	        -4291.34	         3015.01	        -1276.33
     499	 2.00655	 3.02439	        -4288.71	         3012.39	        -1276.32
     500	 2.00385	 3.04198	        -4284.61	         3008.34	        -1276.26
     501	 2.00068	 3.06166	        -4279.77	         3003.58	        -1276.19
     502	 1.99762	 3.08073	        -4275.17	         2998.99	        -1276.18
     503	  1.9949	 3.09817	        -4271.13	         2994.91	        -1276.22
     504	 1.99234	 3.11468	         -4267.3	         2991.07	        -1276.24
     505	 1.98989	  3.1304	         -4263.6	          2987.4	         -1276.2
     506	 1.98794	 3.14367	        -4260.63	         2984.47	        -1276.16
     507	 1.98682	 3.15296	        -4258.99	         2982.79	         -1276.2
     508	 1.98619	 3.15956	        -4258.18	         2981.85	        -1276.33
     509	 1.98504	 3.16768	        -4256.59	         2980.13	        -1276.46
     510	 1.98223	 3.18177	        -4252.44	         2975.91	        -1276.54
     511	 1.97717	 3.20392	        -4244.84	         2968.31	        -1276.53
     512	 1.97011	 3.23274	        -4234.16	         2957.73	        -1276.43
     513	 1.96229	 3.26284	        -4222.27	            2946	        -1276.27
     514	 1.95557	 3.28617	        -4212.05	         2935.92	        -1276.13
     515	 1.95156	 3.29585	        -4205.99	         2929.91	        -1276.09
     516	 1.95119	  3.2882	        -4205.39	         2929.34	        -1276.05
     517	  1.9551	  3.2608	         -4211.2	         2935.22	        -1275.98
     518	 1.96391	 3.21155	        -4224.41	         2948.42	        -1275.98
     519	 1.97733	 3.14201	        -4244.72	         2968.56	        -1276.16
     520	 1.99348	 3.06074	        -4269.21	         2992.78	        -1276.43
     521	 2.00946	 2.98049	        -4293.37	         3016.75	        -1276.63
     522	 2.02304	 2.91105	        -4313.78	         3037.12	        -1276.66
     523	 2.03334	 2.85627	        -4329.21	         3052.57	        -1276.64
     524	 2.04011	 2.81735	        -4339.39	         3062.73	        -1276.66
     525	 2.04329	 2.79505	        -4344.06	          3067.5	        -1276.56
     526	 2.04394	 2.78549	        -4344.73	         3068.48	        -1276.25
     527	  2.0446	   2.778	        -4345.51	         3069.47	        -1276.04
     528	 2.04676	 2.76615	        -4348.92	          3072.7	        -1276.22
     529	  2.0487	 2.75737	        -4352.13	         3075.61	        -1276.53
     530	 2.04741	 2.76433	        -4350.32	         3073.68	        -1276.64
     531	 2.04144	 2.79271	        -4341.27	         3064.73	        -1276.55
     532	 2.03145	 2.83928	         -4326.1	         3049.73	        -1276.37
     533	 2.01926	 2.89603	        -4307.61	         3031.45	        -1276.16
     534	 2.00743	  2.9522	        -4289.57	          3013.7	        -1275.87
     535	  1.9991	 2.99428	        -4276.84	         3001.22	        -1275.62
     536	 1.99653	 3.01206	        -4273.12	         2997.36	        -1275.76
     537	 1.99856	 3.00988	         -4276.6	         3000.41	         -1276.2
     538	 2.00123	 3.00422	        -4280.94	         3004.41	        -1276.53
     539	 2.00117	 3.00881	         -4280.9	         3004.31	        -1276.59
     540	  1.9974	 3.02743	        -4275.12	         2998.66	        -1276.46
     541	 1.99114	 3.05526	        -4265.48	         2989.27	         -1276.2
     542	 1.98496	 3.08193	        -4255.92	            2980	        -1275.92
     543	 1.98179	  3.0955	        -4250.97	         2975.24	        -1275.72
     544	 1.98363	 3.08785	        -4253.75	         2978.01	        -1275.74
     545	 1.99055	 3.05894	        -4264.33	         2988.38	        -1275.95
     546	 2.00073	 3.01658	        -4279.87	         3003.66	        -1276.21
     547	 2.01166	  2.9715	        -4296.47	         3020.05	        -1276.41
     548	 2.02126	 2.93261	        -4310.96	         3034.44	        -1276.51
     549	  2.0283	 2.90517	        -4321.56	         3045.02	        -1276.54
     550	  2.0323	 2.89146	        -4327.54	            3051	        -1276.54
     551	 2.03306	 2.89223	         -4328.7	         3052.15	        -1276.55
     552	 2.03045	 2.90798	        -4324.81	         3048.23	        -1276.58
     553	 2.02438	 2.93887	        -4315.72	         3039.13	        -1276.59
     554	 2.01513	 2.98348	         -4301.8	         3025.25	        -1276.55
     555	 2.00339	 3.03837	        -4284.15	         3007.65	         -1276.5
     556	 1.99015	 3.09901	        -4264.23	         2987.79	        -1276.44
     557	 1.97653	  3.1604	         -4243.7	         2967.35	        -1276.34
     558	 1.96405	 3.21595	         -4224.8	         2948.63	        -1276.16
     559	 1.95481	 3.25678	        -4210.76	         2934.78	        -1275.98
     560	 1.95081	 3.27466	        -4204.65	         2928.78	        -1275.87
     561	 1.95311	 3.26542	        -4208.11	         2932.22	        -1275.89
     562	  1.9612	  3.2312	        -4220.46	         2944.37	         -1276.1
     563	 1.97289	 3.18162	        -4238.26	          2961.9	        -1276.36
     564	 1.98537	 3.12897	        -4257.12	         2980.62	         -1276.5
     565	 1.99655	 3.08223	        -4273.98	         2997.38	         -1276.6
     566	 2.00475	 3.04868	        -4286.42	         3009.69	        -1276.73
     567	 2.00844	 3.03523	        -4291.99	         3015.22	        -1276.77
     568	 2.00706	 3.04441	        -4289.82	         3013.16	        -1276.66
     569	 2.00156	 3.07223	        -4281.37	         3004.89	        -1276.48
     570	 1.99376	 3.11078	        -4269.52	          2993.2	        -1276.32
     571	 1.98548	 3.15223	        -4257.03	         2980.78	        -1276.24
     572	  1.9779	 3.19126	        -4245.64	         2969.41	        -1276.23
     573	 1.97156	 3.22509	        -4236.15	         2959.91	        -1276.24
     574	 1.96688	 3.25178	        -4229.06	         2952.88	        -1276.18
     575	 1.96464	 3.26776	        -4225.62	         2949.52	         -1276.1
     576	 1.96573	 3.26913	        -4227.26	         2951.15	         -1276.1
     577	  1.9702	  3.2558	        -4234.06	         2957.86	        -1276.19
     578	 1.97723	 3.23137	        -4244.72	          2968.4	        -1276.32
     579	 1.98548	 3.20142	        -4257.26	         2980.78	        -1276.48
     580	 1.99336	 3.17277	         -4269.2	         2992.61	         -1276.6
     581	 1.99964	 3.15077	        -4278.65	         3002.02	        -1276.63
     582	 2.00365	 3.13801	        -4284.72	         3008.04	        -1276.68
     583	 2.00473	 3.13731	        -4286.37	         3009.66	        -1276.71
     584	 2.00266	 3.14979	        -4283.13	         3006.55	        -1276.58
     585	 1.99856	 3.17061	        -4276.77	          3000.4	        -1276.37
     586	 1.99445	 3.19132	        -4270.42	         2994.23	        -1276.19
     587	 1.99222	 3.20405	        -4266.94	         2990.88	        -1276.06
     588	 1.99314	 3.20351	         -4268.3	         2992.27	        -1276.04
     589	 1.99723	 3.18931	        -4274.62	          2998.4	        -1276.21
     590	 2.00259	  3.1691	        -4282.97	         3006.45	        -1276.52
     591	 2.00621	 3.15553	         -4288.6	         3011.87	        -1276.72
     592	 2.00592	 3.15753	        -4288.16	         3011.44	        -1276.72
     593	 2.00154	 3.17587	        -4281.45	         3004.87	        -1276.59
     594	 1.99413	 3.20607	        -4270.26	         2993.76	         -1276.5
     595	  1.9847	 3.24405	         -4256.1	         2979.61	        -1276.49
     596	 1.97386	  3.2873	        -4239.79	         2963.35	        -1276.44
     597	 1.96254	 3.33168	         -4222.7	         2946.37	        -1276.32
     598	 1.95237	 3.37024	        -4207.27	         2931.12	        -1276.15
     599	 1.94547	  3.3941	        -4196.71	         2920.76	        -1275.95
     600	 1.94384	 3.39476	        -4194.18	         2918.33	        -1275.85
     601	 1.94835	 3.36877	        -4200.99	         2925.08	        -1275.91
     602	 1.95817	 3.31969	        -4215.89	         2939.82	        -1276.07
     603	  1.9713	 3.25607	        -4235.82	         2959.51	        -1276.31
     604	 1.98494	 3.18964	        -4256.53	         2979.97	        -1276.57
     605	 1.99631	 3.13237	        -4273.73	         2997.02	        -1276.71
     606	 2.00385	 3.09121	        -4284.99	         3008.34	        -1276.64
     607	 2.00794	 3.06506	        -4290.94	         3014.47	        -1276.47
     608	 2.00989	  3.0485	        -4293.81	          3017.4	        -1276.41
     609	 2.01029	 3.03939	        -4294.49	            3018	        -1276.49
     610	 2.00865	    3.04	        -4292.09	         3015.53	        -1276.56
     611	 2.00446	 3.05223	        -4285.82	         3009.26	        -1276.56
     612	 1.99798	 3.07481	        -4276.02	         2999.54	        -1276.48
     613	 1.99027	 3.10303	        -4264.35	         2987.97	        -1276.38
     614	  1.9826	 3.13105	        -4252.83	         2976.46	        -1276.37
     615	 1.97539	 3.15658	        -4242.12	         2965.65	        -1276.47
     616	 1.96827	 3.18093	        -4231.49	         2954.96	        -1276.53
     617	 1.96111	 3.20432	        -4220.68	         2944.23	        -1276.45
     618	 1.95491	 3.22271	        -4211.19	         2934.93	        -1276.26
     619	 1.95149	 3.22859	        -4205.89	         2929.79	         -1276.1
     620	 1.95217	 3.21664	        -4206.94	         2930.82	        -1276.11
     621	 1.95669	 3.18853	        -4213.85	         2937.59	        -1276.26
     622	 1.96347	 3.15126	        -4224.17	         2947.76	         -1276.4
     623	  1.9708	  3.1125	        -4235.25	         2958.75	        -1276.49
     624	 1.97751	 3.07765	        -4245.34	         2968.82	        -1276.51
     625	 1.98313	 3.04927	        -4253.76	         2977.25	        -1276.51
     626	 1.98749	 3.02849	        -4260.34	         2983.79	        -1276.55
     627	 1.99006	 3.01766	        -4264.32	         2987.66	        -1276.67
     628	 1.98978	 3.02142	        -4264.01	         2987.24	        -1276.78
     629	 1.98567	  3.0437	        -4257.87	         2981.07	         -1276.8
     630	 1.97768	 3.08446	         -4245.8	         2969.09	        -1276.72
     631	 1.96686	 3.13901	        -4229.41	         2952.85	        -1276.56
     632	 1.95504	 3.19939	         -4211.5	         2935.13	        -1276.37
     633	  1.9443	 3.25645	        -4195.27	         2919.01	        -1276.25
     634	 1.93587	 3.30434	        -4182.66	         2906.37	        -1276.29
     635	 1.92955	 3.34321	        -4173.27	         2896.89	        -1276.38
     636	 1.92447	 3.37588	        -4165.71	         2889.27	        -1276.43
     637	 1.91996	  3.4043	        -4158.95	         2882.51	        -1276.45
     638	 1.91585	 3.42865	        -4152.73	         2876.34	        -1276.39
     639	 1.91278	 3.44611	        -4147.96	         2871.73	        -1276.23
     640	 1.91217	 3.45072	         -4146.9	         2870.82	        -1276.08
     641	 1.91523	  3.4376	         -4151.5	         2875.41	        -1276.09
     642	  1.9218	 3.40788	        -4161.51	         2885.26	        -1276.25
     643	 1.93026	 3.36863	        -4174.46	         2897.96	         -1276.5
     644	 1.93801	 3.33087	        -4186.38	         2909.58	        -1276.79
     645	 1.94222	 3.30657	        -4192.89	         2915.89	           -1277
     646	 1.94119	 3.30304	         -4191.3	         2914.35	        -1276.94
     647	 1.93598	 3.31651	        -4183.08	         2906.53	        -1276.55
     648	 1.93047	 3.33094	         -4174.4	         2898.26	        -1276.14
     649	 1.92853	  3.3302	        -4171.41	         2895.36	        -1276.04
     650	 1.93146	 3.30965	        -4175.83	         2899.75	        -1276.07
     651	 1.93879	 3.27121	         -4186.9	         2910.74	        -1276.16
     652	 1.94927	  3.2199	         -4202.8	         2926.47	        -1276.33
     653	 1.96102	 3.16381	        -4220.56	          2944.1	        -1276.46
     654	 1.97246	 3.10985	        -4237.73	         2961.25	        -1276.48
     655	 1.98283	 3.06124	        -4253.31	          2976.8	        -1276.51
     656	 1.99149	 3.02077	         -4266.4	         2989.79	        -1276.61
     657	 1.99732	 2.99337	        -4275.26	         2998.54	        -1276.72
     658	 1.99929	 2.98343	        -4278.24	          3001.5	        -1276.74
     659	  1.9974	 2.99102	        -4275.29	         2998.67	        -1276.62
     660	 1.99306	 3.01025	        -4268.55	         2992.15	         -1276.4
     661	 1.98851	 3.03153	        -4261.57	         2985.32	        -1276.25
     662	 1.98527	 3.04811	        -4256.76	         2980.47	        -1276.29
     663	 1.98333	 3.06011	        -4253.93	         2977.55	        -1276.37
     664	 1.98202	 3.07001	        -4251.99	         2975.59	         -1276.4
     665	 1.98089	 3.07927	        -4250.34	          2973.9	        -1276.44
     666	 1.97967	   3.089	        -4248.49	         2972.07	        -1276.42
     667	 1.97859	 3.09822	        -4246.77	         2970.45	        -1276.33
     668	 1.97845	 3.10325	        -4246.54	         2970.24	         -1276.3
     669	 1.97942	 3.10305	        -4248.14	         2971.69	        -1276.44
     670	  1.9804	 3.10228	         -4249.7	         2973.16	        -1276.54
     671	 1.98059	 3.10431	        -4249.88	         2973.45	        -1276.43
     672	 1.98071	 3.10591	        -4249.91	         2973.63	        -1276.28
     673	 1.98191	 3.10218	        -4251.65	         2975.42	        -1276.23
     674	 1.98441	 3.09224	        -4255.48	         2979.17	        -1276.31
     675	 1.98735	 3.07971	        -4260.01	         2983.59	        -1276.42
     676	 1.98961	 3.06947	        -4263.42	         2986.97	        -1276.45
     677	 1.99081	 3.06329	        -4265.11	         2988.77	        -1276.34
     678	 1.99191	 3.05751	        -4266.56	         2990.43	        -1276.13
     679	 1.99456	 3.04559	        -4270.43	         2994.41	        -1276.02
     680	 1.99959	 3.02439	        -4278.04	         3001.95	        -1276.09
     681	 2.00622	 2.99747	        -4288.17	         3011.89	        -1276.28
     682	 2.01244	 2.97324	        -4297.72	         3021.22	         -1276.5
     683	 2.01602	 2.96095	        -4303.24	          3026.6	        -1276.65
     684	 2.01547	 2.96677	        -4302.43	         3025.76	        -1276.67
     685	 2.01053	 2.99151	        -4294.96	         3018.36	         -1276.6
     686	 2.00196	 3.03182	        -4282.02	          3005.5	        -1276.52
     687	  1.9909	 3.08269	        -4265.33	         2988.92	        -1276.41
     688	 1.97881	 3.13793	        -4247.04	         2970.78	        -1276.26
     689	 1.96758	  3.1894	           -4230	         2953.93	        -1276.07
     690	 1.95924	 3.22828	        -4217.39	         2941.42	        -1275.96
     691	 1.95502	 3.24912	        -4211.11	         2935.09	        -1276.02
     692	 1.95475	 3.25243	        -4210.84	         2934.69	        -1276.15
     693	 1.95748	 3.24213	        -4215.02	         2938.78	        -1276.25
     694	 1.96223	 3.22201	        -4222.24	          2945.9	        -1276.34
     695	  1.9681	 3.19585	        -4231.13	         2954.71	        -1276.42
     696	 1.97436	 3.16706	        -4240.53	          2964.1	        -1276.43
     697	 1.98094	 3.13641	        -4250.34	         2973.97	        -1276.36
     698	 1.98821	 3.10274	        -4261.23	         2984.87	        -1276.36
     699	 1.99598	 3.06715	        -4273.01	         2996.53	        -1276.48
     700	   2.003	 3.03525	        -4283.69	         3007.07	        -1276.62
     701	 2.00771	 3.01375	        -4290.83	         3014.13	         -1276.7
     702	 2.00912	 3.00668	        -4292.93	         3016.25	        -1276.68
     703	 2.00727	  3.0139	        -4290.04	         3013.47	        -1276.57
     704	 2.00299	 3.03173	        -4283.52	         3007.05	        -1276.47
     705	 1.99719	 3.05624	        -4274.78	         2998.34	        -1276.43
     706	 1.99045	 3.08489	        -4264.64	         2988.24	         -1276.4
     707	  1.9834	 3.11496	           -4254	         2977.67	        -1276.33
     708	 1.97709	 3.14194	        -4244.41	          2968.2	         -1276.2
     709	   1.973	 3.15944	        -4238.17	         2962.07	         -1276.1
     710	 1.97226	  3.1624	        -4237.08	         2960.95	        -1276.13
     711	 1.97483	 3.15082	        -4241.02	         2964.81	         -1276.2
     712	  1.9801	 3.12725	        -4248.93	         2972.72	        -1276.21
     713	 1.98771	 3.09306	        -4260.33	         2984.13	         -1276.2
     714	 1.99731	 3.04982	        -4274.78	         2998.52	        -1276.25
     715	 2.00805	 3.00144	        -4290.98	         3014.63	        -1276.35
     716	 2.01863	 2.95376	        -4306.96	         3030.51	        -1276.45
     717	 2.02768	 2.91287	        -4320.63	         3044.09	        -1276.55
     718	 2.03398	 2.88404	        -4330.15	         3053.54	        -1276.62
     719	  2.0367	 2.87095	        -4334.23	         3057.61	        -1276.62
     720	 2.03566	 2.87426	        -4332.62	         3056.05	        -1276.57
     721	 2.03142	 2.89153	        -4326.17	         3049.69	        -1276.48
     722	 2.02512	 2.91796	        -4316.56	         3040.24	        -1276.33
     723	  2.0185	 2.94624	        -4306.44	          3030.3	        -1276.13
     724	 2.01357	 2.96777	        -4298.94	         3022.91	        -1276.03
     725	 2.01129	 2.97824	        -4295.66	          3019.5	        -1276.16
     726	  2.0107	 2.98168	        -4294.97	         3018.61	        -1276.36
     727	 2.00998	 2.98557	        -4293.96	         3017.53	        -1276.43
     728	 2.00835	 2.99296	        -4291.44	         3015.09	        -1276.35
     729	 2.00634	 3.00151	        -4288.32	         3012.07	        -1276.25
     730	 2.00478	 3.00768	        -4285.94	         3009.72	        -1276.21
     731	 2.00413	 3.00965	        -4284.97	         3008.76	        -1276.21
     732	 2.00457	 3.00691	        -4285.61	         3009.42	         -1276.2
     733	 2.00626	 2.99889	        -4288.15	         3011.96	        -1276.19
     734	 2.00915	 2.98585	        -4292.57	         3016.29	        -1276.27
     735	 2.01234	 2.97163	        -4297.54	         3021.07	        -1276.47
     736	 2.01397	 2.96398	        -4300.21	         3023.52	        -1276.68
     737	 2.01227	 2.97058	         -4297.7	         3020.97	        -1276.74
     738	 2.00695	 2.99287	        -4289.56	         3012.98	        -1276.58
     739	 1.99952	 3.02448	        -4278.24	         3001.84	        -1276.39
     740	 1.99199	 3.05732	         -4266.8	         2990.55	        -1276.25
     741	   1.986	 3.08477	        -4257.69	         2981.56	        -1276.13
     742	 1.98286	 3.10126	        -4252.94	         2976.85	        -1276.09
     743	 1.98297	  3.1049	        -4253.22	         2977.02	        -1276.19
     744	 1.98538	 3.09952	        -4257.04	         2980.63	        -1276.41
     745	 1.98809	 3.09324	        -4261.29	         2984.69	         -1276.6
     746	 1.98926	 3.09364	        -4263.07	         2986.45	        -1276.62
     747	  1.9886	 3.10181	        -4261.91	         2985.47	        -1276.45
     748	 1.98754	 3.11178	        -4260.09	         2983.87	        -1276.22
     749	 1.98794	 3.11569	         -4260.6	         2984.48	        -1276.12
     750	 1.99057	 3.11019	        -4264.64	         2988.41	        -1276.23
     751	 1.99426	 3.09998	        -4270.38	         2993.95	        -1276.43
     752	 1.99718	  3.0926	        -4274.82	         2998.34	        -1276.48
     753	 1.99878	 3.09021	        -4277.06	         3000.72	        -1276.34
     754	 2.00016	 3.08789	        -4278.95	         3002.81	        -1276.14
     755	 2.00303	 3.07856	        -4283.15	         3007.11	        -1276.05
     756	 2.00811	 3.05923	        -4290.85	         3014.73	        -1276.12
     757	 2.01463	 3.03325	         -4300.8	         3024.51	        -1276.29
     758	 2.02086	   3.008	        -4310.29	         3033.85	        -1276.44
     759	 2.02515	  2.9904	        -4316.78	         3040.29	        -1276.49
     760	 2.02686	 2.98338	        -4319.27	         3042.85	        -1276.42
     761	 2.02651	 2.98493	        -4318.61	         3042.33	        -1276.28
     762	  2.0253	 2.99026	        -4316.71	         3040.51	         -1276.2
     763	 2.02388	 2.99654	        -4314.67	         3038.38	        -1276.29
     764	 2.02156	 3.00671	        -4311.35	          3034.9	        -1276.45
     765	  2.0172	 3.02558	        -4304.82	         3028.36	        -1276.46
     766	 2.01089	  3.0527	         -4295.2	         3018.89	        -1276.31
     767	 2.00421	 3.08134	        -4285.01	         3008.88	        -1276.13
     768	 1.99899	 3.10388	        -4277.13	         3001.05	        -1276.08
     769	 1.99594	 3.11729	        -4272.66	         2996.48	        -1276.18
     770	 1.99428	 3.12478	        -4270.32	         2993.98	        -1276.34
     771	 1.99269	 3.13174	           -4268	          2991.6	        -1276.39
     772	 1.99074	  3.1399	        -4264.99	         2988.67	        -1276.32
     773	  1.9889	 3.14688	        -4262.19	         2985.92	        -1276.27
     774	 1.98756	 3.15084	        -4260.24	          2983.9	        -1276.34
     775	 1.98628	 3.15344	        -4258.38	         2981.98	         -1276.4
     776	  1.9848	 3.15597	        -4256.03	         2979.76	        -1276.27
     777	 1.98426	 3.15356	        -4255.02	         2978.96	        -1276.06
     778	 1.98624	 3.13947	        -4257.97	         2981.92	        -1276.05
     779	 1.99068	 3.11415	         -4264.8	         2988.58	        -1276.22
     780	 1.99595	 3.08479	        -4272.88	         2996.49	        -1276.39
     781	 2.00059	 3.05816	        -4279.81	         3003.44	        -1276.36
     782	 2.00485	 3.03379	        -4286.03	         3009.83	         -1276.2
     783	  2.0099	 3.00694	        -4293.65	         3017.41	        -1276.23
     784	 2.01534	 2.97984	        -4302.02	         3025.57	        -1276.45
     785	 2.01912	 2.96148	        -4307.84	         3031.24	         -1276.6
     786	 2.01947	 2.95915	         -4308.4	         3031.76	        -1276.64
     787	 2.01564	 2.97572	        -4302.64	         3026.02	        -1276.62
     788	 2.00779	 3.01048	        -4290.78	         3014.25	        -1276.53
     789	 1.99695	 3.05898	        -4274.37	         2997.99	        -1276.38
     790	 1.98464	 3.11441	         -4255.8	         2979.52	        -1276.29
     791	 1.97206	 3.17132	        -4236.89	         2960.66	        -1276.23
     792	 1.96019	 3.22539	        -4218.98	         2942.85	        -1276.13
     793	  1.9502	 3.27112	        -4203.88	         2927.86	        -1276.01
     794	 1.94331	 3.30294	         -4193.5	         2917.53	        -1275.97
     795	 1.93998	 3.31847	        -4188.58	         2912.53	        -1276.05
     796	  1.9395	 3.32039	        -4188.01	         2911.82	         -1276.2
     797	 1.94064	 3.31392	        -4189.77	         2913.52	        -1276.25
     798	 1.94291	 3.30132	        -4193.06	         2916.93	        -1276.13
     799	 1.94718	 3.27929	        -4199.28	         2923.34	        -1275.95
     800	 1.95478	 3.24268	        -4210.61	         2934.73	        -1275.88
     801	   1.966	 3.19075	        -4227.54	         2951.56	        -1275.98
     802	 1.97965	 3.12905	        -4248.21	         2972.04	        -1276.17
     803	 1.99368	 3.06663	        -4269.44	         2993.08	        -1276.36
     804	 2.00588	 3.01291	        -4287.91	         3011.38	        -1276.53
     805	 2.01446	 2.97575	        -4300.87	         3024.25	        -1276.62
     806	 2.01857	 2.95909	        -4306.99	         3030.41	        -1276.58
     807	 2.01858	 2.96153	        -4306.92	         3030.43	        -1276.49
     808	 2.01529	 2.97957	        -4302.02	          3025.5	        -1276.52
     809	 2.00861	  3.0133	        -4292.15	         3015.47	        -1276.67
     810	 1.99768	 3.06608	        -4275.79	         2999.08	        -1276.71
     811	  1.9828	 3.13632	        -4253.23	         2976.76	        -1276.47
     812	 1.96668	 3.21218	        -4228.66	         2952.58	        -1276.09
     813	 1.95324	 3.27665	        -4208.28	         2932.42	        -1275.85
     814	 1.94509	 3.31836	        -4196.12	         2920.19	        -1275.92
     815	 1.94206	 3.33763	        -4191.81	         2915.66	        -1276.15
     816	 1.94244	  3.3414	        -4192.52	         2916.22	         -1276.3
     817	 1.94485	 3.33504	        -4196.17	         2919.83	        -1276.34
     818	 1.94869	 3.32081	        -4201.98	          2925.6	        -1276.38
     819	  1.9536	 3.30058	        -4209.39	         2932.96	        -1276.43
     820	 1.95904	 3.27678	         -4217.6	         2941.12	        -1276.48
     821	 1.96436	  3.2524	        -4225.66	          2949.1	        -1276.56
     822	 1.96869	 3.23119	        -4232.24	          2955.6	        -1276.64
     823	 1.97122	  3.2167	        -4236.04	         2959.39	        -1276.65
     824	 1.97176	 3.20968	        -4236.76	         2960.21	        -1276.56
     825	 1.97115	 3.20663	         -4235.7	         2959.29	        -1276.41
     826	 1.97083	 3.20164	        -4235.08	         2958.81	        -1276.27
     827	  1.9723	 3.18873	        -4237.16	         2961.01	        -1276.15
     828	 1.97674	 3.16327	        -4243.79	         2967.68	        -1276.12
     829	 1.98429	 3.12494	        -4255.27	            2979	        -1276.27
     830	 1.99327	   3.081	        -4269.02	         2992.46	        -1276.55
     831	 2.00068	 3.04416	        -4280.37	         3003.59	        -1276.78
     832	 2.00399	 3.02521	        -4285.37	         3008.54	        -1276.83
     833	 2.00237	 3.02747	        -4282.82	         3006.11	        -1276.71
     834	 1.99677	 3.04688	        -4274.23	         2997.72	        -1276.51
     835	 1.98906	 3.07556	        -4262.46	         2986.15	        -1276.31
     836	 1.98134	 3.10466	        -4250.67	         2974.57	         -1276.1
     837	 1.97579	 3.12502	        -4242.14	         2966.24	         -1275.9
     838	 1.97429	 3.12858	        -4239.82	            2964	        -1275.82
     839	 1.97754	 3.11235	         -4244.8	         2968.88	        -1275.92
     840	 1.98449	 3.08072	        -4255.45	          2979.3	        -1276.15
     841	 1.99293	 3.04303	        -4268.32	         2991.96	        -1276.36
     842	 2.00071	 3.00842	        -4280.11	         3003.62	        -1276.49
     843	  2.0064	 2.98276	        -4288.71	         3012.17	        -1276.54
     844	 2.00944	 2.96852	        -4293.27	         3016.73	        -1276.54
     845	 2.00992	 2.96535	        -4293.92	         3017.44	        -1276.49
     846	 2.00862	 2.96991	        -4291.85	         3015.49	        -1276.36
     847	 2.00701	 2.97591	        -4289.31	         3013.08	        -1276.23
     848	 2.00643	 2.97733	        -4288.44	          3012.2	        -1276.24
     849	 2.00706	 2.97307	        -4289.47	         3013.15	        -1276.32
     850	 2.00861	 2.96435	        -4291.73	         3015.48	        -1276.25
     851	 2.01172	 2.94827	        -4296.22	         3020.15	        -1276.08
     852	 2.01777	 2.91892	        -4305.22	         3029.22	           -1276
     853	 2.02721	  2.8745	        -4319.47	         3043.38	        -1276.09
     854	 2.03899	 2.82002	        -4337.25	         3061.05	         -1276.2
     855	 2.05166	  2.7621	        -4356.29	         3080.05	        -1276.24
     856	 2.06394	  2.7063	        -4374.82	         3098.47	        -1276.35
     857	 2.07404	 2.66056	        -4390.18	         3113.62	        -1276.56
     858	 2.07957	  2.6354	        -4398.63	         3121.91	        -1276.72
     859	 2.07885	 2.63817	        -4397.55	         3120.84	        -1276.71
     860	 2.07186	   2.669	        -4386.95	         3110.35	        -1276.61
     861	 2.05966	 2.72304	        -4368.59	         3092.05	        -1276.54
     862	 2.04333	 2.79541	        -4344.09	         3067.55	        -1276.54
     863	 2.02378	 2.88186	        -4314.68	         3038.23	        -1276.46
     864	 2.00271	 2.97471	        -4282.84	         3006.63	        -1276.22
     865	 1.98326	 3.06037	        -4253.34	         2977.45	        -1275.89
     866	 1.96918	 3.12261	        -4232.02	         2956.34	        -1275.69
     867	 1.96285	 3.15102	        -4222.67	         2946.84	        -1275.82
     868	 1.96341	 3.14904	        -4223.87	         2947.68	        -1276.19
     869	 1.96792	  3.1294	         -4230.8	         2954.45	        -1276.35
     870	 1.97457	 3.09998	         -4240.7	         2964.42	        -1276.28
     871	 1.98315	 3.06165	         -4253.6	         2977.29	        -1276.31
     872	 1.99281	  3.0185	         -4268.3	         2991.78	        -1276.53
     873	  2.0013	 2.98066	        -4281.22	          3004.5	        -1276.71
     874	 2.00655	 2.95714	        -4289.14	         3012.39	        -1276.74
     875	 2.00796	 2.95073	        -4291.16	          3014.5	        -1276.66
     876	 2.00613	 2.95897	        -4288.33	         3011.76	        -1276.57
     877	  2.0019	 2.97835	        -4281.96	          3005.4	        -1276.56
     878	 1.99558	 3.00735	        -4272.47	         2995.93	        -1276.54
     879	 1.98772	 3.04355	        -4260.53	         2984.14	        -1276.38
     880	 1.98007	 3.07924	        -4248.79	         2972.67	        -1276.12
     881	 1.97522	 3.10315	        -4241.31	          2965.4	        -1275.91
     882	 1.97532	 3.10621	        -4241.39	         2965.54	        -1275.85
     883	 1.98103	 3.08559	        -4250.05	         2974.11	        -1275.94
     884	 1.99144	 3.04521	        -4265.87	         2989.72	        -1276.15
     885	 2.00429	 2.99456	        -4285.43	            3009	        -1276.43
     886	 2.01655	 2.94642	        -4304.12	         3027.39	        -1276.72
     887	  2.0251	 2.91391	        -4317.17	         3040.21	        -1276.96
     888	 2.02762	 2.90682	        -4321.01	            3044	        -1277.01
     889	 2.02381	 2.92676	        -4315.09	         3038.28	        -1276.82
     890	 2.01551	 2.96596	        -4302.39	         3025.82	        -1276.56
     891	 2.00525	 3.01376	        -4286.85	         3010.44	        -1276.41
     892	 1.99487	 3.06263	        -4271.18	         2994.87	         -1276.3
     893	 1.98554	  3.1075	        -4257.09	         2980.87	        -1276.22
     894	 1.97809	 3.14461	        -4245.84	          2969.7	        -1276.15
     895	 1.97312	 3.17115	        -4238.35	         2962.24	        -1276.11
     896	 1.97073	 3.18629	        -4234.85	         2958.66	        -1276.19
     897	 1.97006	 3.19337	        -4233.99	         2957.65	        -1276.34
     898	 1.96969	 3.19821	        -4233.52	         2957.09	        -1276.43
     899	 1.96877	 3.20426	        -4232.11	         2955.71	         -1276.4
     900	 1.96762	 3.21013	        -4230.27	            2954	        -1276.28
     901	 1.96739	  3.2113	        -4229.79	         2953.65	        -1276.14
     902	 1.96935	 3.20269	        -4232.63	         2956.59	        -1276.04
     903	 1.97418	 3.18163	        -4239.93	         2963.83	         -1276.1
     904	 1.98112	  3.1515	        -4250.55	         2974.25	         -1276.3
     905	 1.98818	 3.12095	        -4261.34	         2984.83	         -1276.5
     906	 1.99319	 3.09916	        -4268.99	         2992.34	        -1276.65
     907	 1.99455	 3.09278	        -4271.13	         2994.39	        -1276.74
     908	 1.99149	 3.10521	        -4266.52	         2989.79	        -1276.73
     909	 1.98461	 3.13424	        -4255.96	         2979.48	        -1276.49
     910	 1.97659	  3.1689	        -4243.57	         2967.45	        -1276.12
     911	 1.97094	 3.19422	        -4234.94	         2958.98	        -1275.97
     912	 1.96924	 3.20343	        -4232.53	         2956.42	        -1276.11
     913	 1.97033	  3.2012	        -4234.41	         2958.06	        -1276.35
     914	   1.972	 3.19648	        -4237.06	         2960.55	         -1276.5
     915	 1.97266	 3.19546	        -4238.05	         2961.56	         -1276.5
     916	 1.97228	 3.19817	        -4237.36	         2960.98	        -1276.38
     917	 1.97175	 3.20059	         -4236.5	         2960.18	        -1276.31
     918	  1.9717	 3.20016	        -4236.42	         2960.12	         -1276.3
     919	 1.97239	 3.19621	        -4237.39	         2961.14	        -1276.24
     920	 1.97423	 3.18712	         -4240.1	         2963.91	        -1276.19
     921	 1.97763	 3.17157	         -4245.2	            2969	         -1276.2
     922	 1.98245	 3.15046	        -4252.51	         2976.24	        -1276.27
     923	 1.98797	 3.12708	        -4260.91	         2984.52	        -1276.39
     924	 1.99308	 3.10626	        -4268.67	         2992.18	        -1276.49
     925	 1.99684	 3.09204	        -4274.34	         2997.82	        -1276.52
     926	 1.99891	 3.08574	        -4277.45	         3000.92	        -1276.53
     927	   1.999	 3.08821	        -4277.72	         3001.06	        -1276.66
     928	 1.99591	 3.10413	        -4273.29	         2996.42	        -1276.87
     929	 1.98806	 3.13992	        -4261.56	         2984.65	        -1276.91
     930	 1.97529	 3.19589	        -4242.25	          2965.5	        -1276.75
     931	 1.95947	 3.26384	        -4218.23	         2941.77	        -1276.47
     932	  1.9438	 3.33034	        -4194.39	         2918.26	        -1276.13
     933	 1.93195	 3.37997	        -4176.36	         2900.49	        -1275.87
     934	 1.92658	 3.40129	        -4168.29	         2892.43	        -1275.85
     935	 1.92798	 3.39289	        -4170.55	         2894.53	        -1276.02
     936	 1.93454	 3.36149	        -4180.54	         2904.37	        -1276.17
     937	 1.94447	 3.31443	         -4195.5	         2919.27	        -1276.22
     938	 1.95657	 3.25669	        -4213.69	         2937.42	        -1276.28
     939	 1.96975	 3.19297	        -4233.55	         2957.18	        -1276.37
     940	 1.98284	 3.12865	        -4253.23	         2976.82	        -1276.41
     941	  1.9952	 3.06695	         -4271.7	         2995.36	        -1276.34
     942	 2.00704	 3.00739	         -4289.4	         3013.12	        -1276.28
     943	 2.01854	 2.94948	        -4306.69	         3030.37	        -1276.32
     944	 2.02911	 2.89619	        -4322.62	         3046.23	        -1276.39
     945	 2.03797	 2.85123	         -4335.9	         3059.51	        -1276.38
     946	 2.04479	 2.81609	        -4346.09	         3069.75	        -1276.34
     947	 2.04977	  2.7903	        -4353.49	         3077.22	        -1276.27
     948	 2.05329	 2.77245	        -4358.73	         3082.49	        -1276.24
     949	 2.05536	 2.76241	        -4361.91	          3085.6	        -1276.31
     950	  2.0553	 2.76302	        -4361.93	         3085.51	        -1276.41
     951	 2.05232	 2.77757	        -4357.45	         3081.03	        -1276.41
     952	 2.04652	 2.80536	        -4348.63	         3072.34	        -1276.29
     953	 2.03909	  2.8412	        -4337.38	          3061.2	        -1276.17
     954	 2.03122	 2.87982	        -4325.58	          3049.4	        -1276.18
     955	 2.02314	 2.91998	        -4313.56	         3037.28	        -1276.28
     956	 2.01432	 2.96362	        -4300.41	         3024.04	        -1276.37
     957	 2.00434	 3.01201	        -4285.44	         3009.07	        -1276.38
     958	 1.99356	 3.06321	        -4269.21	         2992.91	         -1276.3
     959	 1.98313	 3.11218	        -4253.46	         2977.26	         -1276.2
     960	 1.97444	 3.15273	         -4240.4	         2964.22	        -1276.18
     961	 1.96819	 3.18155	        -4231.15	         2954.85	         -1276.3
     962	 1.96391	 3.20062	        -4224.86	         2948.42	        -1276.44
     963	 1.96104	 3.21251	        -4220.52	         2944.13	         -1276.4
     964	 1.96029	 3.21442	        -4219.27	            2943	        -1276.28
     965	 1.96276	  3.2018	        -4222.99	         2946.71	        -1276.28
     966	 1.96845	 3.17515	        -4231.62	         2955.23	        -1276.39
     967	 1.97631	 3.13927	        -4243.47	         2967.03	        -1276.44
     968	 1.98542	 3.09828	        -4257.12	         2980.69	        -1276.43
     969	  1.9952	 3.05477	         -4271.8	         2995.36	        -1276.43
     970	 2.00509	 3.01149	        -4286.63	         3010.19	        -1276.43
     971	 2.01451	  2.9712	        -4300.74	         3024.32	        -1276.42
     972	 2.02294	 2.93621	        -4313.42	         3036.97	        -1276.44
     973	 2.02966	 2.90963	        -4323.57	         3047.05	        -1276.53
     974	 2.03353	  2.8961	        -4329.49	         3052.86	        -1276.62
     975	  2.0335	 2.89985	        -4329.49	         3052.82	        -1276.67
     976	 2.02906	 2.92259	        -4322.82	         3046.16	        -1276.66
     977	 2.02056	 2.96255	        -4309.94	          3033.4	        -1276.54
     978	 2.00956	 3.01299	        -4293.17	          3016.9	        -1276.27
     979	   1.999	 3.06149	        -4277.01	         3001.06	        -1275.96
     980	 1.99207	 3.09444	        -4266.46	         2990.66	         -1275.8
     981	 1.99042	 3.10482	        -4264.08	         2988.19	        -1275.89
     982	 1.99337	 3.09543	        -4268.75	         2992.61	        -1276.13
     983	 1.99861	 3.07577	        -4276.88	         3000.47	        -1276.41
     984	 2.00342	 3.05708	        -4284.31	         3007.69	        -1276.63
     985	 2.00574	 3.04815	        -4287.85	         3011.18	        -1276.67
     986	 2.00539	 3.05042	        -4287.12	         3010.64	        -1276.48
     987	 2.00423	 3.05643	        -4285.17	          3008.9	        -1276.27
     988	 2.00411	 3.05857	        -4285.09	         3008.73	        -1276.36
     989	 2.00473	 3.05897	        -4286.16	         3009.65	        -1276.51
     990	 2.00485	 3.06311	        -4286.39	         3009.84	        -1276.55
     991	 2.00384	 3.07329	        -4284.95	         3008.32	        -1276.64
     992	 2.00088	 3.09263	        -4280.63	         3003.88	        -1276.74
     993	 1.99534	 3.12384	        -4272.25	         2995.57	        -1276.67
     994	 1.98813	 3.16292	        -4261.18	         2984.75	        -1276.42
     995	 1.98168	 3.19938	        -4251.28	         2975.08	         -1276.2
     996	 1.97805	 3.22422	        -4245.87	         2969.64	        -1276.22
     997	 1.97722	  3.2376	        -4244.76	         2968.39	        -1276.37
     998	 1.97769	 3.24549	        -4245.59	          2969.1	        -1276.49
     999	 1.97798	 3.25369	        -4246.09	         2969.53	        -1276.56
