    Step 	 temperature 	 pressure 	 Potential Energy 	 Kinetic Energy 	 Sum Energy

       0	 2.18608	-1.53644	        -1743.23	         1681.47	        -61.7545
       1	 2.18617	-1.53298	        -1743.32	         1681.54	        -61.7719
       2	 2.18635	-1.52231	        -1743.47	         1681.68	        -61.7845
       3	 2.18641	-1.50377	        -1743.54	         1681.73	        -61.8079
       4	 2.18596	-1.47622	        -1743.23	         1681.39	        -61.8453
       5	 2.18442	-1.43785	        -1742.11	          1680.2	        -61.9023
       6	 2.18087	-1.38604	        -1739.46	         1677.48	        -61.9861
       7	 2.17401	-1.31709	        -1734.31	         1672.21	        -62.1037
       8	 2.16206	-1.22614	        -1725.28	         1663.03	        -62.2509
       9	 2.14305	-1.10786	        -1710.82	         1648.43	        -62.3867
      10	 2.11568	-0.958946	        -1689.83	         1627.41	        -62.4174
      11	 2.08082	-0.782621	        -1662.95	         1600.64	        -62.3089
      12	 2.04147	-0.589048	        -1632.66	         1570.42	        -62.2407
      13	 1.99989	-0.386349	        -1600.79	         1538.49	        -62.3032
      14	 1.95634	-0.176214	        -1567.34	         1505.04	        -62.3076
      15	 1.91157	 0.03782	         -1532.8	         1470.65	        -62.1514
      16	 1.86872	0.245016	        -1499.67	         1437.75	        -61.9184
      17	 1.83218	0.431218	        -1471.42	         1409.68	        -61.7397
      18	 1.80534	0.585522	        -1450.74	         1389.07	        -61.6769
      19	 1.78938	0.703791	        -1438.53	         1376.82	        -61.7157
      20	 1.78346	 0.78819	        -1434.08	         1372.27	        -61.8122
      21	 1.78542	0.844865	         -1435.7	         1373.77	        -61.9257
      22	 1.79268	0.881529	        -1441.37	         1379.34	        -62.0299
      23	 1.80275	0.905725	        -1449.19	         1387.08	        -62.1125
      24	 1.81361	0.923828	        -1457.59	         1395.42	        -62.1695
      25	 1.82382	0.940562	        -1465.46	         1403.26	         -62.198
      26	 1.83261	 0.95871	        -1472.21	         1410.01	        -62.1978
      27	 1.83985	 0.97911	        -1477.76	         1415.57	        -62.1821
      28	  1.8458	 1.00139	        -1482.32	         1420.14	        -62.1752
      29	 1.85066	 1.02519	        -1486.06	         1423.88	        -62.1829
      30	 1.85453	 1.05049	        -1489.03	         1426.85	        -62.1863
      31	 1.85757	 1.07685	        -1491.36	         1429.18	        -62.1781
      32	 1.86015	 1.10314	        -1493.34	         1431.17	         -62.173
      33	 1.86264	 1.12824	        -1495.25	         1433.08	        -62.1756
      34	 1.86532	 1.15132	        -1497.31	         1435.13	        -62.1721
      35	 1.86858	 1.17121	        -1499.79	         1437.64	        -62.1537
      36	 1.87306	 1.18607	        -1503.21	         1441.08	        -62.1313
      37	 1.87941	 1.19397	        -1508.09	         1445.96	        -62.1379
      38	 1.88766	 1.19472	         -1514.5	         1452.29	        -62.2102
      39	 1.89671	  1.1915	        -1521.56	         1459.24	          -62.32
      40	 1.90492	 1.18922	        -1527.91	         1465.55	        -62.3655
      41	  1.9117	 1.18971	        -1533.06	         1470.75	        -62.3027
      42	 1.91807	 1.18977	        -1537.87	         1475.64	        -62.2245
      43	 1.92527	 1.18563	         -1543.4	         1481.18	        -62.2195
      44	 1.93337	 1.17717	        -1549.66	          1487.4	        -62.2628
      45	 1.94152	 1.16698	        -1555.96	         1493.65	        -62.3034
      46	 1.94886	 1.15758	         -1561.6	         1499.29	        -62.3103
      47	 1.95521	 1.14966	        -1566.44	         1504.17	        -62.2725
      48	 1.96117	 1.14161	        -1570.96	         1508.75	        -62.2169
      49	 1.96762	   1.131	        -1575.89	          1513.7	        -62.1933
      50	 1.97489	 1.11701	         -1581.5	         1519.28	        -62.2146
      51	 1.98253	 1.10115	         -1587.4	         1525.15	        -62.2483
      52	 1.98982	 1.08567	        -1593.02	         1530.75	        -62.2662
      53	 1.99628	   1.072	        -1597.97	         1535.71	        -62.2607
      54	 2.00188	 1.06031	        -1602.25	         1540.01	        -62.2363
      55	 2.00693	 1.04976	         -1606.1	         1543.89	        -62.2127
      56	  2.0117	 1.03959	        -1609.77	         1547.55	        -62.2163
      57	 2.01598	 1.03048	        -1613.09	         1550.84	        -62.2531
      58	   2.019	 1.02475	        -1615.46	         1553.16	        -62.3012
      59	 2.01981	 1.02519	        -1616.12	         1553.79	        -62.3317
      60	 2.01786	 1.03349	        -1614.62	         1552.29	        -62.3294
      61	 2.01325	 1.04927	        -1611.04	         1548.75	        -62.2976
      62	 2.00678	 1.07014	        -1606.02	         1543.78	        -62.2419
      63	 1.99988	 1.09193	        -1600.63	         1538.48	        -62.1519
      64	 1.99459	 1.10866	        -1596.47	         1534.42	        -62.0563
      65	 1.99274	 1.11482	        -1595.06	         1532.99	        -62.0698
      66	 1.99411	 1.11095	        -1596.25	         1534.05	        -62.2014
      67	 1.99653	 1.10389	        -1598.21	         1535.91	        -62.3038
      68	 1.99797	 1.09976	        -1599.33	         1537.01	        -62.3228
      69	 1.99774	 1.10058	        -1599.15	         1536.83	        -62.3156
      70	 1.99581	 1.10654	        -1597.69	         1535.35	        -62.3362
      71	 1.99192	 1.11857	        -1594.75	         1532.36	        -62.3873
      72	 1.98544	 1.13852	        -1589.82	         1527.39	        -62.4323
      73	 1.97598	 1.16747	        -1582.57	         1520.12	        -62.4447
      74	 1.96381	 1.20434	         -1573.2	         1510.77	         -62.429
      75	 1.94984	 1.24596	        -1562.43	         1500.04	        -62.3874
      76	 1.93568	 1.28729	        -1551.47	         1489.17	        -62.2996
      77	 1.92374	 1.32093	        -1542.18	            1480	        -62.1745
      78	 1.91672	 1.33859	        -1536.73	         1474.61	        -62.1171
      79	 1.91574	 1.33672	        -1536.07	         1473.86	        -62.2087
      80	 1.91926	 1.32017	        -1538.91	         1476.56	        -62.3489
      81	 1.92461	  1.2972	        -1543.08	         1480.67	        -62.4057
      82	 1.93032	 1.27247	        -1547.41	         1485.05	        -62.3537
      83	 1.93673	  1.2452	        -1552.25	         1489.98	        -62.2714
      84	 1.94475	 1.21285	         -1558.4	         1496.14	        -62.2603
      85	 1.95427	 1.17609	        -1565.77	         1503.45	         -62.323
      86	   1.964	 1.13895	        -1573.29	         1510.92	        -62.3724
      87	 1.97286	 1.10488	        -1580.08	         1517.73	         -62.356
      88	  1.9808	 1.07408	        -1586.13	         1523.82	         -62.308
      89	 1.98833	 1.04501	        -1591.89	         1529.61	        -62.2839
      90	 1.99575	 1.01703	        -1597.59	         1535.31	        -62.2807
      91	 2.00305	0.990357	        -1603.17	         1540.91	        -62.2646
      92	 2.01037	0.964685	        -1608.77	         1546.53	         -62.231
      93	 2.01813	0.938938	         -1614.7	         1552.49	        -62.2069
      94	 2.02653	0.912628	        -1621.17	         1558.95	        -62.2238
      95	 2.03507	0.887408	         -1627.8	          1565.5	        -62.2947
      96	 2.04231	0.867594	        -1633.46	         1571.06	        -62.4011
      97	 2.04629	0.859003	        -1636.62	         1574.12	        -62.4965
      98	 2.04544	0.866332	        -1635.99	         1573.46	        -62.5307
      99	 2.03937	0.890527	        -1631.29	         1568.81	        -62.4892
     100	 2.02924	0.928043	        -1623.42	         1561.02	        -62.3949
     101	 2.01728	0.972115	        -1614.11	         1551.84	        -62.2696
     102	 2.00618	 1.01459	         -1605.5	         1543.31	        -62.1807
     103	 1.99768	 1.04986	        -1598.99	         1536.78	        -62.2072
     104	 1.99157	 1.07843	        -1594.36	         1532.09	        -62.2673
     105	 1.98684	  1.1032	        -1590.73	         1528.46	        -62.2695
     106	 1.98307	 1.12506	        -1587.83	         1525.57	        -62.2637
     107	 1.97999	 1.14455	         -1585.5	          1523.2	        -62.3043
     108	 1.97671	 1.16418	        -1583.05	         1520.68	        -62.3661
     109	 1.97208	 1.18726	        -1579.53	         1517.13	        -62.4018
     110	 1.96549	 1.21541	        -1574.45	         1512.07	        -62.3864
     111	 1.95739	  1.2471	        -1568.16	         1505.85	        -62.3175
     112	 1.94931	 1.27767	        -1561.86	         1499.64	        -62.2145
     113	 1.94341	 1.30061	        -1557.23	          1495.1	        -62.1282
     114	 1.94141	 1.31056	        -1555.71	         1493.57	        -62.1313
     115	 1.94341	 1.30713	        -1557.36	         1495.11	        -62.2471
     116	 1.94751	 1.29587	        -1560.66	         1498.26	        -62.3969
     117	 1.95122	 1.28424	        -1563.57	          1501.1	        -62.4703
     118	 1.95333	 1.27585	        -1565.14	         1502.72	        -62.4132
     119	 1.95492	 1.26769	        -1566.21	         1503.94	        -62.2691
     120	 1.95845	 1.25254	        -1568.83	         1506.66	        -62.1726
     121	 1.96549	 1.22586	        -1574.28	         1512.07	        -62.2156
     122	 1.97526	 1.19026	         -1581.9	         1519.57	        -62.3377
     123	 1.98546	 1.15274	        -1589.83	          1527.4	        -62.4289
     124	  1.9942	  1.1191	        -1596.56	         1534.12	        -62.4416
     125	 2.00096	 1.09111	         -1601.7	         1539.31	        -62.3897
     126	 2.00643	 1.06705	        -1605.82	          1543.5	        -62.3177
     127	 2.01169	   1.044	        -1609.81	         1547.54	         -62.269
     128	 2.01744	 1.02025	        -1614.24	         1551.97	        -62.2707
     129	 2.02344	0.996808	         -1618.9	         1556.57	        -62.3326
     130	 2.02835	 0.97778	        -1622.77	         1560.34	        -62.4287
     131	 2.03036	 0.96873	        -1624.38	         1561.89	        -62.4936
     132	 2.02833	0.973176	        -1622.79	         1560.33	        -62.4691
     133	 2.02275	0.989658	        -1618.41	         1556.04	        -62.3654
     134	 2.01552	 1.01239	        -1612.76	         1550.49	        -62.2692
     135	 2.00845	 1.03569	        -1607.32	         1545.06	        -62.2555
     136	  2.0021	 1.05772	        -1602.48	         1540.18	        -62.3003
     137	 1.99601	 1.07961	        -1597.84	          1535.5	         -62.336
     138	 1.98974	 1.10226	        -1593.03	         1530.69	        -62.3421
     139	 1.98335	 1.12521	        -1588.12	         1525.78	        -62.3349
     140	 1.97723	 1.14722	         -1583.4	         1521.08	        -62.3159
     141	   1.972	 1.16648	        -1579.35	         1517.06	        -62.2808
     142	 1.96847	 1.18061	        -1576.61	         1514.35	        -62.2585
     143	 1.96712	  1.1882	        -1575.61	         1513.32	        -62.2916
     144	 1.96741	 1.19087	        -1575.92	         1513.54	        -62.3808
     145	 1.96779	 1.19317	         -1576.3	         1513.84	        -62.4687
     146	 1.96677	 1.19958	        -1575.54	         1513.05	        -62.4945
     147	 1.96389	 1.21137	        -1573.28	         1510.83	          -62.45
     148	 1.95997	 1.22598	         -1570.2	         1507.83	         -62.373
     149	 1.95652	 1.23898	        -1567.48	         1505.17	        -62.3031
     150	 1.95491	 1.24616	         -1566.2	         1503.94	        -62.2606
     151	 1.95599	 1.24494	        -1567.02	         1504.77	        -62.2535
     152	 1.95987	 1.23483	        -1570.02	         1507.75	        -62.2767
     153	 1.96607	  1.2171	        -1574.81	         1512.51	        -62.2984
     154	 1.97414	  1.1931	        -1580.99	         1518.71	        -62.2757
     155	 1.98431	 1.16227	        -1588.73	         1526.52	        -62.2165
     156	 1.99718	 1.12281	         -1598.6	          1536.4	        -62.2022
     157	 2.01252	 1.07558	        -1610.46	         1548.19	        -62.2774
     158	  2.0286	 1.02614	        -1622.91	         1560.53	        -62.3832
     159	 2.04305	0.981851	        -1634.08	         1571.63	        -62.4507
     160	 2.05418	 0.94811	        -1642.64	         1580.18	        -62.4585
     161	 2.06144	0.926862	        -1648.17	         1585.76	        -62.4166
     162	 2.06534	0.916935	         -1651.1	         1588.75	        -62.3535
     163	 2.06689	0.915555	        -1652.25	         1589.94	        -62.3073
     164	 2.06693	0.920407	        -1652.28	         1589.97	          -62.31
     165	 2.06549	0.931357	        -1651.23	         1588.86	        -62.3709
     166	 2.06166	0.950899	        -1648.39	         1585.92	        -62.4677
     167	 2.05406	0.982829	        -1642.63	         1580.08	        -62.5462
     168	 2.04186	 1.02918	        -1633.24	         1570.72	        -62.5271
     169	 2.02622	 1.08623	        -1621.07	          1558.7	        -62.3656
     170	 2.01069	 1.14296	        -1608.94	         1546.78	        -62.1578
     171	 1.99933	 1.18672	        -1600.16	         1538.06	        -62.0986
     172	 1.99353	 1.21305	        -1595.82	          1533.6	        -62.2265
     173	 1.99132	 1.22768	        -1594.29	          1531.9	        -62.3909
     174	 1.98971	  1.2393	        -1593.15	         1530.67	        -62.4865
     175	 1.98673	 1.25345	        -1590.88	         1528.38	        -62.5041
     176	 1.98196	 1.27124	        -1587.17	         1524.71	        -62.4557
     177	 1.97636	  1.2898	        -1582.77	         1520.41	        -62.3572
     178	  1.9719	 1.30329	        -1579.23	         1516.99	        -62.2464
     179	 1.97077	 1.30534	         -1578.3	         1516.12	        -62.1819
     180	 1.97423	 1.29229	        -1580.98	         1518.78	        -62.2054
     181	 1.98187	 1.26559	        -1586.96	         1524.64	        -62.3199
     182	 1.99146	 1.23199	        -1594.51	         1532.01	        -62.4962
     183	 1.99975	 1.20146	           -1601	         1538.37	        -62.6268
     184	  2.0044	 1.18138	        -1604.54	         1541.95	        -62.5878
     185	 2.00596	 1.17048	        -1605.56	         1543.14	        -62.4187
     186	 2.00707	 1.16102	        -1606.29	            1544	        -62.2911
     187	 2.00977	 1.14724	        -1608.37	         1546.07	        -62.2948
     188	 2.01386	 1.13012	        -1611.58	         1549.21	        -62.3654
     189	 2.01777	 1.11456	        -1614.65	         1552.22	        -62.4271
     190	 2.01993	 1.10526	        -1616.34	         1553.87	        -62.4641
     191	 2.01933	 1.10522	        -1615.88	         1553.41	        -62.4663
     192	 2.01591	 1.11479	        -1613.19	         1550.79	        -62.4042
     193	 2.01095	 1.13035	        -1609.26	         1546.98	        -62.2824
     194	 2.00669	 1.14519	        -1605.91	         1543.71	           -62.2
     195	 2.00464	 1.15476	        -1604.36	         1542.13	        -62.2342
     196	 2.00438	 1.16031	        -1604.24	         1541.93	        -62.3082
     197	 2.00462	 1.16567	        -1604.46	         1542.12	        -62.3438
     198	 2.00444	 1.17326	        -1604.35	         1541.98	        -62.3664
     199	 2.00317	 1.18482	        -1603.42	            1541	        -62.4193
     200	 1.99977	 1.20311	        -1600.88	         1538.39	        -62.4913
     201	  1.9931	 1.23131	        -1595.81	         1533.27	        -62.5374
     202	 1.98266	 1.27058	        -1587.76	         1525.25	        -62.5145
     203	 1.96936	 1.31785	        -1577.44	         1515.04	        -62.4021
     204	 1.95584	 1.36501	        -1566.88	         1504.65	        -62.2293
     205	 1.94571	 1.40094	        -1558.96	         1496.88	        -62.0807
     206	 1.94206	 1.41625	        -1556.11	         1494.07	        -62.0381
     207	 1.94591	 1.40771	        -1559.13	         1497.03	         -62.108
     208	 1.95606	 1.37894	        -1567.06	         1504.82	        -62.2322
     209	 1.97003	 1.33747	         -1577.9	         1515.55	        -62.3495
     210	 1.98516	  1.2914	         -1589.6	         1527.17	        -62.4327
     211	 1.99927	 1.24747	        -1600.49	         1538.01	        -62.4864
     212	 2.01076	  1.2108	        -1609.34	         1546.83	        -62.5143
     213	  2.0186	 1.18468	        -1615.36	         1552.85	        -62.5117
     214	 2.02247	 1.17029	        -1618.31	         1555.83	        -62.4822
     215	 2.02269	 1.16678	        -1618.44	         1555.99	        -62.4423
     216	  2.0199	 1.17218	        -1616.26	         1553.85	        -62.4093
     217	 2.01479	 1.18432	        -1612.32	         1549.93	        -62.3903
     218	 2.00797	 1.20128	        -1607.07	         1544.69	        -62.3776
     219	 2.00007	 1.22107	        -1600.97	         1538.62	        -62.3553
     220	 1.99194	 1.24098	         -1594.7	         1532.38	        -62.3158
     221	 1.98474	 1.25747	        -1589.14	         1526.85	        -62.2889
     222	 1.97927	 1.26791	        -1584.98	         1522.65	        -62.3248
     223	 1.97528	 1.27292	        -1581.97	         1519.58	        -62.3906
     224	 1.97208	 1.27462	        -1579.49	         1517.13	         -62.368
     225	 1.97035	 1.27115	        -1578.02	          1515.8	        -62.2246
     226	 1.97252	 1.25539	        -1579.54	         1517.46	        -62.0823
     227	 1.98071	 1.22109	        -1585.85	         1523.75	        -62.0923
     228	 1.99435	 1.17032	        -1596.49	         1534.23	        -62.2646
     229	 2.00996	 1.11377	        -1608.69	         1546.22	        -62.4676
     230	 2.02341	 1.06414	        -1619.13	         1556.54	        -62.5855
     231	 2.03194	 1.02973	         -1625.7	          1563.1	        -62.5934
     232	   2.035	 1.01254	        -1627.96	         1565.45	        -62.5161
     233	 2.03371	 1.00945	        -1626.86	         1564.46	        -62.4041
     234	 2.02995	 1.01502	         -1623.9	         1561.57	        -62.3299
     235	 2.02505	 1.02537	        -1620.13	          1557.8	        -62.3271
     236	 2.01922	 1.03984	        -1615.68	         1553.33	        -62.3487
     237	 2.01228	 1.05889	        -1610.34	            1548	         -62.337
     238	 2.00461	 1.08129	         -1604.4	         1542.11	        -62.2889
     239	 1.99721	 1.10383	        -1598.66	         1536.42	        -62.2403
     240	 1.99112	 1.12318	        -1593.97	         1531.75	        -62.2268
     241	 1.98681	 1.13778	        -1590.69	         1528.44	        -62.2525
     242	 1.98407	 1.14812	        -1588.62	         1526.34	        -62.2845
     243	 1.98249	 1.15525	        -1587.42	         1525.12	        -62.2977
     244	  1.9819	 1.15957	        -1586.97	         1524.67	        -62.3031
     245	 1.98219	 1.16121	        -1587.21	         1524.89	        -62.3133
     246	 1.98321	 1.16067	        -1587.99	         1525.68	        -62.3172
     247	 1.98478	 1.15838	         -1589.2	         1526.88	        -62.3182
     248	  1.9866	 1.15497	        -1590.63	         1528.28	        -62.3494
     249	 1.98791	  1.1525	        -1591.69	         1529.28	        -62.4063
     250	 1.98762	 1.15402	        -1591.49	         1529.06	         -62.425
     251	 1.98541	  1.1604	        -1589.72	         1527.36	        -62.3565
     252	 1.98245	 1.16805	        -1587.31	         1525.09	        -62.2233
     253	 1.98101	 1.17016	        -1586.09	         1523.98	        -62.1037
     254	 1.98308	 1.16084	        -1587.65	         1525.58	        -62.0715
     255	 1.98907	 1.13892	        -1592.32	         1530.18	        -62.1389
     256	 1.99758	 1.10865	        -1598.97	         1536.71	        -62.2551
     257	 2.00627	 1.07708	        -1605.74	         1543.38	        -62.3593
     258	 2.01296	 1.05073	        -1610.94	         1548.52	        -62.4188
     259	 2.01641	 1.03351	        -1613.59	         1551.17	        -62.4217
     260	 2.01657	 1.02589	        -1613.65	         1551.29	        -62.3624
     261	 2.01461	 1.02471	        -1612.05	         1549.79	         -62.266
     262	 2.01231	  1.0249	        -1610.24	         1548.02	        -62.2152
     263	 2.01056	 1.02379	        -1608.95	         1546.68	        -62.2717
     264	 2.00852	   1.024	        -1607.47	         1545.11	        -62.3574
     265	 2.00479	 1.02967	        -1604.59	         1542.24	        -62.3478
     266	 1.99944	 1.04038	        -1600.37	         1538.14	        -62.2334
     267	 1.99433	 1.05042	        -1596.31	         1534.21	        -62.1001
     268	 1.99171	 1.05296	        -1594.23	          1532.2	        -62.0294
     269	 1.99282	 1.04436	         -1595.1	         1533.05	        -62.0428
     270	 1.99737	 1.02551	        -1598.66	         1536.55	         -62.111
     271	   2.004	 1.00049	        -1603.83	         1541.64	        -62.1941
     272	 2.01101	0.974379	        -1609.29	         1547.03	         -62.267
     273	  2.0169	0.951755	        -1613.87	         1551.54	        -62.3225
     274	 2.02048	 0.93607	        -1616.66	          1554.3	          -62.36
     275	 2.02108	0.929414	        -1617.12	         1554.76	        -62.3679
     276	 2.01866	0.931829	        -1615.22	          1552.9	        -62.3224
     277	 2.01425	0.940263	        -1611.73	         1549.52	        -62.2189
     278	 2.00988	 0.94862	        -1608.26	         1546.16	        -62.0977
     279	 2.00783	0.950048	        -1606.61	         1544.59	          -62.02
     280	 2.00955	0.940246	        -1607.92	          1545.9	        -62.0227
     281	 2.01494	0.919499	        -1612.14	         1550.04	        -62.0964
     282	 2.02256	0.892167	        -1618.09	         1555.89	        -62.1935
     283	 2.03049	0.864097	        -1624.25	         1561.99	        -62.2638
     284	 2.03726	0.839783	        -1629.47	         1567.19	        -62.2846
     285	 2.04236	0.820918	        -1633.36	          1571.1	        -62.2605
     286	 2.04618	0.806575	        -1636.26	         1574.04	        -62.2204
     287	 2.04939	0.794866	        -1638.72	          1576.5	         -62.217
     288	 2.05204	0.785666	        -1640.81	         1578.53	        -62.2785
     289	 2.05315	 0.78189	        -1641.74	         1579.39	        -62.3572
     290	  2.0515	0.787118	         -1640.5	         1578.12	        -62.3806
     291	 2.04685	0.801972	        -1636.88	         1574.55	        -62.3256
     292	 2.04036	0.822859	        -1631.79	         1569.57	         -62.224
     293	 2.03404	0.843699	        -1626.85	         1564.71	        -62.1398
     294	 2.02956	0.859404	        -1623.41	         1561.27	        -62.1331
     295	 2.02721	0.869066	        -1621.68	         1559.46	        -62.2151
     296	 2.02567	0.876494	        -1620.61	         1558.28	        -62.3279
     297	 2.02309	 0.88718	        -1618.69	          1556.3	        -62.3877
     298	  2.0185	0.903992	        -1615.14	         1552.77	        -62.3659
     299	 2.01233	0.925593	        -1610.35	         1548.04	        -62.3116
     300	 2.00566	0.948714	         -1605.2	         1542.92	        -62.2839
     301	 1.99927	0.971081	         -1600.3	         1538.01	        -62.2876
     302	  1.9934	0.991931	         -1595.8	          1533.5	        -62.3017
     303	 1.98806	  1.0111	        -1591.71	          1529.4	        -62.3137
     304	 1.98331	  1.0283	        -1588.06	         1525.75	        -62.3085
     305	 1.97941	  1.0425	        -1585.06	         1522.76	        -62.3026
     306	 1.97656	 1.05282	         -1582.9	         1520.57	        -62.3281
     307	 1.97449	 1.05983	        -1581.33	         1518.97	        -62.3527
     308	 1.97296	 1.06402	        -1580.13	          1517.8	        -62.3246
     309	 1.97263	  1.0634	        -1579.79	         1517.55	        -62.2368
     310	 1.97515	 1.05314	        -1581.61	         1519.49	        -62.1196
     311	 1.98257	 1.02744	        -1587.22	         1525.18	        -62.0381
     312	   1.996	 0.98324	        -1597.57	          1535.5	         -62.071
     313	 2.01441	0.924126	        -1611.85	         1549.63	        -62.2169
     314	 2.03462	0.860045	        -1627.54	         1565.16	        -62.3757
     315	 2.05307	 0.80217	         -1641.8	         1579.32	         -62.476
     316	  2.0671	0.758724	        -1652.61	          1590.1	        -62.5152
     317	 2.07537	0.734125	        -1658.96	         1596.45	        -62.5072
     318	 2.07762	0.729429	        -1660.65	         1598.18	        -62.4668
     319	 2.07442	  0.7431	        -1658.14	         1595.72	        -62.4146
     320	 2.06675	0.772119	         -1652.2	         1589.83	        -62.3668
     321	 2.05574	  0.8129	        -1643.69	         1581.37	        -62.3192
     322	 2.04267	0.861271	        -1633.59	         1571.34	        -62.2509
     323	 2.02924	0.911792	        -1623.19	         1561.02	         -62.164
     324	 2.01734	0.958265	        -1613.99	         1551.88	         -62.107
     325	 2.00829	0.996244	        -1607.05	         1544.94	        -62.1083
     326	 2.00243	 1.02444	        -1602.56	         1540.43	        -62.1231
     327	 1.99969	 1.04278	        -1600.44	         1538.33	        -62.1094
     328	 2.00025	 1.05051	        -1600.86	         1538.76	         -62.096
     329	 2.00415	 1.04745	        -1603.89	         1541.76	        -62.1346
     330	 2.01047	 1.03636	        -1608.84	         1546.61	         -62.229
     331	 2.01731	 1.02302	         -1614.2	         1551.87	        -62.3372
     332	 2.02251	 1.01398	        -1618.27	         1555.85	        -62.4204
     333	 2.02435	 1.01436	        -1619.73	         1557.27	        -62.4599
     334	 2.02207	 1.02654	        -1617.96	         1555.52	        -62.4455
     335	 2.01601	 1.04953	        -1613.24	         1550.86	        -62.3792
     336	 2.00753	 1.07929	        -1606.64	         1544.35	        -62.2939
     337	 1.99836	 1.11052	        -1599.55	         1537.31	          -62.24
     338	 1.98973	 1.13934	        -1592.92	         1530.68	        -62.2366
     339	 1.98205	 1.16441	        -1587.03	         1524.78	        -62.2507
     340	 1.97535	  1.1854	        -1581.88	         1519.64	        -62.2399
     341	    1.97	 1.20108	        -1577.73	         1515.53	        -62.2023
     342	  1.9667	 1.20918	        -1575.17	            1513	        -62.1725
     343	 1.96599	 1.20813	        -1574.63	         1512.45	        -62.1804
     344	 1.96769	 1.19853	        -1575.98	         1513.76	         -62.225
     345	 1.97097	 1.18303	        -1578.55	         1516.27	        -62.2762
     346	 1.97484	 1.16479	        -1581.54	         1519.24	        -62.2979
     347	 1.97881	 1.14559	        -1584.58	         1522.29	        -62.2831
     348	 1.98297	 1.12543	        -1587.75	         1525.49	        -62.2623
     349	 1.98754	 1.10399	        -1591.27	            1529	        -62.2721
     350	 1.99221	 1.08237	        -1594.91	         1532.58	        -62.3209
     351	 1.99607	 1.06348	        -1597.93	         1535.55	         -62.381
     352	 1.99805	 1.05058	        -1599.47	         1537.07	        -62.4024
     353	 1.99784	 1.04469	        -1599.26	         1536.91	        -62.3512
     354	 1.99639	 1.04296	        -1598.04	         1535.79	        -62.2503
     355	 1.99549	 1.03996	        -1597.28	         1535.11	        -62.1717
     356	 1.99657	 1.03137	        -1598.11	         1535.93	        -62.1792
     357	 1.99956	 1.01728	         -1600.5	         1538.23	        -62.2701
     358	 2.00298	 1.00205	        -1603.23	         1540.86	        -62.3693
     359	  2.0052	0.990602	        -1604.95	         1542.56	        -62.3936
     360	 2.00581	0.984191	        -1605.36	         1543.03	        -62.3273
     361	 2.00596	0.979556	        -1605.38	         1543.14	        -62.2325
     362	 2.00723	0.972051	        -1606.32	         1544.12	        -62.1968
     363	 2.01018	0.960111	        -1608.65	         1546.39	        -62.2628
     364	  2.0136	0.947382	         -1611.4	         1549.01	        -62.3893
     365	 2.01521	0.940575	        -1612.74	         1550.25	        -62.4896
     366	 2.01318	0.944964	         -1611.2	         1548.69	        -62.5101
     367	 2.00713	0.961412	         -1606.5	         1544.05	        -62.4579
     368	 1.99818	0.986433	        -1599.53	         1537.17	        -62.3567
     369	 1.98857	 1.01337	        -1591.99	         1529.79	        -62.2034
     370	 1.98147	 1.03293	        -1586.37	         1524.34	        -62.0276
     371	 1.98006	 1.03565	        -1585.21	         1523.26	        -61.9583
     372	 1.98531	 1.01854	        -1589.36	         1527.29	        -62.0751
     373	 1.99494	0.988636	        -1596.94	         1534.68	        -62.2553
     374	 2.00531	 0.95689	        -1604.99	         1542.65	        -62.3447
     375	 2.01418	0.930071	        -1611.77	         1549.46	        -62.3136
     376	  2.0215	0.908511	         -1617.3	         1555.08	        -62.2139
     377	  2.0286	0.888561	        -1622.66	         1560.53	        -62.1275
     378	 2.03664	0.867027	        -1628.84	         1566.71	        -62.1307
     379	 2.04531	0.845106	        -1635.59	         1573.36	        -62.2262
     380	  2.0527	0.828562	        -1641.39	         1579.05	        -62.3453
     381	 2.05655	0.824241	        -1644.42	            1582	        -62.4226
     382	 2.05536	0.836473	        -1643.52	         1581.09	        -62.4297
     383	 2.04907	0.865369	        -1638.63	         1576.26	        -62.3728
     384	  2.0389	0.907137	        -1630.74	         1568.45	        -62.2892
     385	 2.02666	0.956126	        -1621.27	         1559.04	        -62.2248
     386	 2.01392	 1.00728	        -1611.46	         1549.26	        -62.1973
     387	 2.00169	 1.05724	        -1602.06	         1539.87	        -62.1934
     388	 1.99053	 1.10393	        -1593.49	         1531.29	        -62.1935
     389	 1.98087	  1.1456	        -1586.06	         1523.88	        -62.1874
     390	  1.9732	  1.1805	        -1580.16	         1517.98	        -62.1778
     391	 1.96798	 1.20699	        -1576.15	         1513.98	        -62.1739
     392	 1.96548	 1.22413	        -1574.25	         1512.06	        -62.1847
     393	  1.9656	 1.23213	        -1574.37	         1512.15	        -62.2204
     394	 1.96773	 1.23276	        -1576.06	         1513.78	         -62.277
     395	 1.97091	 1.22888	        -1578.55	         1516.23	         -62.323
     396	 1.97444	 1.22268	        -1581.26	         1518.94	         -62.321
     397	 1.97851	 1.21384	        -1584.33	         1522.06	        -62.2716
     398	 1.98396	 1.19996	         -1588.5	         1526.25	        -62.2512
     399	 1.99104	 1.18042	        -1594.01	         1531.69	        -62.3191
     400	 1.99857	 1.15914	        -1599.88	         1537.47	        -62.4109
     401	 2.00479	  1.1415	        -1604.69	         1542.25	        -62.4473
     402	 2.00883	 1.13019	        -1607.77	         1545.35	        -62.4201
     403	 2.01097	 1.12442	        -1609.36	            1547	        -62.3649
     404	 2.01211	 1.12154	        -1610.19	         1547.87	        -62.3155
     405	 2.01318	 1.11882	        -1610.96	         1548.69	        -62.2749
     406	 2.01499	 1.11395	        -1612.31	         1550.08	        -62.2325
     407	 2.01828	 1.10476	        -1614.81	         1552.61	        -62.1996
     408	 2.02352	 1.09004	        -1618.84	         1556.64	        -62.2027
     409	 2.03043	 1.07078	        -1624.19	         1561.94	        -62.2562
     410	 2.03776	 1.05087	        -1629.92	         1567.57	        -62.3527
     411	 2.04351	 1.03639	        -1634.45	         1571.99	        -62.4628
     412	 2.04557	 1.03374	        -1636.12	         1573.57	        -62.5471
     413	  2.0425	 1.04726	        -1633.77	         1571.21	        -62.5682
     414	 2.03432	 1.07692	        -1627.41	         1564.92	        -62.4904
     415	 2.02304	 1.11681	         -1618.6	         1556.26	        -62.3366
     416	  2.0119	   1.157	        -1609.95	         1547.71	        -62.2428
     417	 2.00312	 1.19054	        -1603.23	         1540.97	        -62.2663
     418	 1.99696	 1.21645	        -1598.54	         1536.24	        -62.3049
     419	 1.99298	 1.23556	        -1595.49	         1533.18	        -62.3159
     420	 1.99102	 1.24791	        -1593.97	         1531.67	        -62.3039
     421	 1.99113	 1.25304	        -1594.07	         1531.76	        -62.3096
     422	 1.99286	 1.25198	        -1595.48	         1533.08	        -62.3914
     423	 1.99452	 1.24965	        -1596.85	         1534.36	        -62.4881
     424	 1.99427	 1.25163	        -1596.65	         1534.17	        -62.4853
     425	 1.99191	 1.25849	        -1594.73	         1532.36	        -62.3766
     426	 1.98911	 1.26527	        -1592.45	         1530.21	        -62.2456
     427	 1.98806	 1.26554	        -1591.57	          1529.4	        -62.1685
     428	 1.99008	 1.25555	        -1593.11	         1530.95	        -62.1626
     429	 1.99517	 1.23544	        -1597.05	         1534.86	        -62.1981
     430	 2.00245	 1.20791	        -1602.68	         1540.45	        -62.2317
     431	 2.01096	 1.17594	        -1609.23	         1546.99	        -62.2449
     432	 2.02002	 1.14173	        -1616.19	         1553.94	        -62.2478
     433	 2.02914	 1.10695	         -1623.2	         1560.95	        -62.2518
     434	  2.0379	 1.07315	        -1629.94	         1567.68	        -62.2571
     435	 2.04592	 1.04185	         -1636.1	         1573.84	        -62.2616
     436	 2.05286	  1.0144	        -1641.43	         1579.17	        -62.2668
     437	 2.05843	0.992039	        -1645.72	         1583.45	        -62.2783
     438	 2.06227	0.976137	         -1648.7	         1586.39	        -62.3056
     439	 2.06378	0.968627	        -1649.91	         1587.55	        -62.3582
     440	 2.06208	 0.97225	        -1648.68	         1586.25	        -62.4295
     441	 2.05617	0.989937	        -1644.19	         1581.71	        -62.4807
     442	 2.04579	 1.02255	        -1636.17	         1573.73	        -62.4406
     443	 2.03245	 1.06559	         -1625.8	         1563.49	        -62.3015
     444	 2.01911	 1.10987	        -1615.49	         1553.25	        -62.2392
     445	  2.0073	 1.15023	        -1606.51	         1544.17	        -62.3375
     446	 1.99607	 1.18931	        -1597.95	         1535.55	        -62.3955
     447	 1.98483	 1.22849	        -1589.22	         1526.92	         -62.301
     448	 1.97534	 1.26203	        -1581.77	         1519.63	          -62.14
     449	 1.97047	 1.28106	        -1577.94	         1515.89	        -62.0569
     450	 1.97173	 1.28099	        -1578.96	         1516.85	        -62.1061
     451	 1.97828	 1.26445	         -1584.1	         1521.89	        -62.2092
     452	 1.98805	 1.23772	        -1591.68	         1529.39	        -62.2945
     453	 1.99892	 1.20699	        -1600.11	         1537.74	        -62.3691
     454	 2.00898	 1.17801	        -1607.91	         1545.47	        -62.4465
     455	 2.01646	 1.15624	        -1613.71	         1551.21	        -62.4968
     456	 2.02024	 1.14521	        -1616.59	         1554.12	        -62.4789
     457	 2.02052	 1.14453	        -1616.72	         1554.33	        -62.3947
     458	 2.01868	 1.15012	        -1615.22	         1552.92	        -62.3058
     459	 2.01622	 1.15748	        -1613.31	         1551.03	        -62.2813
     460	 2.01361	  1.1651	        -1611.34	         1549.02	        -62.3188
     461	 2.01028	  1.1745	        -1608.82	         1546.46	        -62.3541
     462	 2.00568	 1.18707	        -1605.27	         1542.93	        -62.3408
     463	 2.00009	 1.20166	        -1600.92	         1538.64	        -62.2823
     464	 1.99465	 1.21462	        -1596.67	         1534.46	         -62.206
     465	 1.99089	 1.22125	        -1593.71	         1531.57	        -62.1387
     466	 1.99017	 1.21745	        -1593.12	         1531.02	        -62.0984
     467	  1.9933	 1.20085	        -1595.52	         1533.43	        -62.0954
     468	  2.0003	 1.17164	        -1600.93	          1538.8	        -62.1341
     469	 2.01026	 1.13271	        -1608.66	         1546.45	        -62.2108
     470	 2.02148	 1.08947	        -1617.38	         1555.06	        -62.3198
     471	 2.03164	 1.04913	        -1625.31	         1562.87	        -62.4464
     472	 2.03822	 1.01947	        -1630.48	         1567.93	        -62.5566
     473	 2.03925	 1.00662	        -1631.33	         1568.71	        -62.6168
     474	  2.0341	 1.01275	        -1627.33	         1564.76	        -62.5701
     475	  2.0249	 1.03244	        -1619.97	         1557.69	        -62.2809
     476	 2.01804	 1.04767	        -1614.31	         1552.42	        -61.8858
     477	 2.02002	 1.03836	        -1615.94	         1553.94	        -61.9969
     478	 2.02928	 1.00984	        -1623.46	         1561.05	        -62.4021
     479	 2.03859	0.984193	        -1630.82	         1568.21	        -62.6106
     480	 2.04282	0.975776	        -1634.11	         1571.46	        -62.6565
     481	 2.04028	0.989184	        -1632.11	          1569.5	        -62.6133
     482	 2.03151	 1.02257	        -1625.27	         1562.77	        -62.4991
     483	  2.0187	 1.06926	        -1615.28	         1552.93	        -62.3524
     484	 2.00469	 1.12029	        -1604.41	         1542.17	        -62.2381
     485	 1.99185	 1.16816	         -1594.5	         1532.31	        -62.1932
     486	 1.98135	 1.20894	        -1586.43	         1524.25	        -62.1819
     487	 1.97369	 1.24089	        -1580.52	         1518.36	         -62.159
     488	 1.96925	  1.2625	         -1577.1	         1514.95	        -62.1491
     489	 1.96805	 1.27349	        -1576.24	         1514.03	        -62.2044
     490	 1.96902	 1.27701	        -1577.09	         1514.77	        -62.3193
     491	 1.97013	 1.27908	        -1578.06	         1515.63	        -62.4252
     492	 1.96966	 1.28495	        -1577.71	         1515.27	        -62.4462
     493	 1.96743	 1.29523	        -1575.92	         1513.56	        -62.3611
     494	 1.96512	 1.30508	        -1574.02	         1511.78	        -62.2387
     495	 1.96495	 1.30791	        -1573.84	         1511.65	        -62.1899
     496	 1.96787	 1.30103	        -1576.14	         1513.89	        -62.2508
     497	 1.97285	 1.28766	        -1580.08	         1517.72	        -62.3633
     498	 1.97777	 1.27411	        -1583.96	          1521.5	        -62.4589
     499	  1.9807	 1.26608	        -1586.25	         1523.75	        -62.5025
     500	 1.98068	 1.26642	        -1586.21	         1523.73	        -62.4817
     501	 1.97804	 1.27415	        -1584.11	         1521.71	        -62.4007
     502	 1.97435	 1.28474	        -1581.15	         1518.87	        -62.2821
     503	 1.97188	 1.29155	        -1579.15	         1516.97	        -62.1818
     504	 1.97247	  1.2891	         -1579.6	         1517.42	        -62.1798
     505	 1.97616	 1.27722	        -1582.55	         1520.26	        -62.2973
     506	 1.98093	 1.26192	        -1586.37	         1523.92	        -62.4495
     507	 1.98415	 1.25105	        -1588.93	         1526.39	        -62.5325
     508	 1.98439	 1.24887	        -1589.09	         1526.58	        -62.5124
     509	 1.98215	 1.25395	        -1587.28	         1524.86	        -62.4204
     510	 1.97933	 1.26078	           -1585	         1522.69	        -62.3108
     511	 1.97823	 1.26277	        -1584.07	         1521.85	        -62.2223
     512	 1.98061	 1.25487	        -1585.88	         1523.67	        -62.2041
     513	 1.98662	 1.23654	        -1590.61	          1528.3	        -62.3118
     514	 1.99417	 1.21412	        -1596.56	         1534.09	        -62.4729
     515	 2.00013	 1.19695	        -1601.22	         1538.67	        -62.5459
     516	 2.00275	 1.19024	        -1603.19	         1540.68	        -62.5085
     517	 2.00221	 1.19329	         -1602.7	         1540.27	        -62.4309
     518	 1.99972	 1.20255	        -1600.71	         1538.35	         -62.359
     519	 1.99664	 1.21399	        -1598.28	         1535.99	        -62.2868
     520	 1.99443	 1.22332	         -1596.5	         1534.29	        -62.2114
     521	 1.99449	 1.22626	        -1596.51	         1534.34	        -62.1687
     522	 1.99755	 1.22053	        -1598.88	         1536.68	        -62.1961
     523	 2.00305	 1.20765	        -1603.19	         1540.91	        -62.2838
     524	 2.00936	 1.19244	        -1608.14	         1545.76	        -62.3853
     525	 2.01456	 1.18056	        -1612.21	         1549.75	        -62.4594
     526	 2.01727	  1.1761	        -1614.31	         1551.83	        -62.4848
     527	 2.01705	 1.18031	        -1614.12	         1551.66	         -62.463
     528	 2.01433	 1.19185	        -1612.01	         1549.57	        -62.4389
     529	 2.00958	 1.20908	        -1608.38	         1545.93	        -62.4566
     530	 2.00272	 1.23211	        -1603.13	         1540.66	        -62.4723
     531	 1.99379	 1.26069	        -1596.21	          1533.8	        -62.4101
     532	 1.98412	 1.29062	        -1588.64	         1526.37	        -62.2721
     533	 1.97628	 1.31402	        -1582.49	         1520.35	        -62.1401
     534	 1.97273	 1.32348	        -1579.71	         1517.63	        -62.0821
     535	 1.97463	 1.31566	        -1581.17	         1519.08	        -62.0877
     536	 1.98183	  1.2912	        -1586.74	         1524.61	        -62.1231
     537	  1.9934	 1.25312	        -1595.69	          1533.5	        -62.1921
     538	 2.00761	 1.20679	        -1606.73	         1544.42	        -62.3136
     539	 2.02181	 1.16036	        -1617.79	         1555.32	         -62.468
     540	 2.03287	 1.12343	         -1626.4	         1563.81	        -62.5887
     541	 2.03836	 1.10335	        -1630.65	         1568.03	        -62.6183
     542	 2.03765	  1.1021	        -1630.03	         1567.48	        -62.5508
     543	 2.03202	 1.11582	        -1625.59	         1563.16	        -62.4289
     544	 2.02393	 1.13707	        -1619.26	         1556.94	        -62.3204
     545	 2.01576	 1.15853	        -1612.95	         1550.67	        -62.2811
     546	 2.00879	 1.17598	        -1607.65	         1545.32	        -62.3275
     547	   2.003	 1.18917	        -1603.28	         1540.87	        -62.4078
     548	 1.99835	 1.19852	        -1599.63	          1537.3	        -62.3267
     549	 1.99757	 1.19654	        -1598.79	          1536.7	        -62.0915
     550	 2.00397	 1.17221	        -1603.91	         1541.62	        -62.2965
     551	 2.01408	 1.13659	        -1612.07	         1549.38	        -62.6864
     552	 2.02089	 1.11163	        -1617.34	         1554.61	        -62.7305
     553	 2.02188	 1.10429	        -1617.98	         1555.37	        -62.6088
     554	 2.01814	 1.11126	        -1615.02	          1552.5	        -62.5258
     555	 2.01097	 1.12908	        -1609.49	         1546.99	        -62.4975
     556	 2.00101	 1.15597	        -1601.81	         1539.34	        -62.4708
     557	 1.98894	 1.18974	        -1592.49	         1530.08	        -62.4103
     558	 1.97607	 1.22625	        -1582.51	         1520.19	        -62.3193
     559	 1.96423	 1.25962	        -1573.33	          1511.1	        -62.2292
     560	  1.9553	 1.28396	        -1566.41	         1504.24	         -62.166
     561	 1.95073	 1.29475	        -1562.85	         1500.73	        -62.1211
     562	 1.95167	 1.28867	        -1563.51	         1501.45	        -62.0605
     563	 1.95932	 1.26232	        -1569.33	         1507.33	        -62.0017
     564	  1.9743	 1.21393	        -1580.91	         1518.83	        -62.0776
     565	 1.99462	 1.14953	        -1596.76	         1534.44	         -62.324
     566	  2.0154	 1.08411	        -1612.95	          1550.4	        -62.5535
     567	 2.03181	 1.03239	        -1625.64	            1563	        -62.6451
     568	 2.04134	  1.0019	        -1632.94	         1570.32	        -62.6205
     569	 2.04392	0.993119	        -1634.83	          1572.3	        -62.5323
     570	 2.04093	 1.00212	        -1632.43	         1570.01	        -62.4285
     571	 2.03427	 1.02328	        -1627.24	         1564.89	        -62.3507
     572	 2.02553	 1.05167	        -1620.48	         1558.18	        -62.3063
     573	 2.01586	 1.08357	        -1613.01	         1550.75	        -62.2601
     574	 2.00648	 1.11501	        -1605.73	         1543.55	        -62.1811
     575	 1.99908	 1.14057	        -1599.96	         1537.86	        -62.0928
     576	 1.99539	 1.15474	        -1597.08	         1535.03	        -62.0567
     577	 1.99614	 1.15503	         -1597.7	          1535.6	        -62.0976
     578	 2.00071	 1.14324	        -1601.29	         1539.11	        -62.1722
     579	 2.00775	 1.12341	        -1606.75	         1544.52	        -62.2288
     580	 2.01608	 1.09917	        -1613.17	         1550.92	        -62.2582
     581	 2.02492	 1.07303	        -1619.98	         1557.71	        -62.2739
     582	  2.0338	 1.04688	        -1626.81	         1564.52	        -62.2865
     583	 2.04222	 1.02252	        -1633.31	            1571	        -62.3153
     584	 2.04942	 1.00263	         -1638.9	         1576.52	        -62.3792
     585	 2.05405	0.991497	        -1642.55	         1580.08	        -62.4671
     586	 2.05445	0.994238	        -1642.93	         1580.38	        -62.5453
     587	 2.04926	 1.01487	        -1638.98	          1576.4	        -62.5811
     588	 2.03812	 1.05436	        -1630.39	         1567.85	        -62.5462
     589	  2.0222	 1.10912	        -1618.04	         1555.62	        -62.4235
     590	 2.00434	 1.17045	        -1604.15	          1541.9	        -62.2453
     591	 1.98828	  1.2269	        -1591.68	         1529.57	        -62.1109
     592	 1.97683	 1.26967	        -1582.88	         1520.77	         -62.111
     593	 1.97029	  1.2974	        -1577.98	         1515.75	        -62.2303
     594	 1.96673	 1.31545	        -1575.39	         1513.02	        -62.3727
     595	  1.9636	 1.33097	        -1573.08	         1510.62	        -62.4611
     596	 1.95922	 1.34857	        -1569.73	         1507.25	        -62.4797
     597	 1.95326	 1.36892	         -1565.1	         1502.67	        -62.4343
     598	 1.94684	 1.38874	        -1560.06	         1497.74	        -62.3133
     599	 1.94254	 1.40059	        -1556.58	         1494.44	         -62.143
     600	 1.94349	 1.39517	        -1557.22	         1495.17	        -62.0544
     601	 1.95117	 1.36811	        -1563.21	         1501.06	        -62.1469
     602	 1.96387	 1.32472	        -1573.15	         1510.82	        -62.3261
     603	 1.97816	 1.27544	        -1584.24	          1521.8	        -62.4458
     604	 1.99133	 1.22843	        -1594.39	         1531.91	        -62.4803
     605	 2.00212	 1.18751	        -1602.68	          1540.2	        -62.4753
     606	 2.01029	 1.15379	        -1608.91	         1546.47	        -62.4382
     607	 2.01637	 1.12615	         -1613.5	         1551.14	        -62.3554
     608	 2.02163	 1.10113	        -1617.46	         1555.18	        -62.2778
     609	 2.02719	 1.07562	        -1621.72	         1559.45	        -62.2695
     610	 2.03304	 1.04992	        -1626.25	         1563.94	        -62.3109
     611	 2.03826	 1.02696	        -1630.31	         1567.95	        -62.3575
     612	 2.04176	    1.01	        -1633.04	         1570.64	        -62.3943
     613	 2.04275	 1.00139	        -1633.81	          1571.4	        -62.4074
     614	 2.04102	  1.0017	        -1632.45	         1570.08	        -62.3766
     615	  2.0373	  1.0088	        -1629.52	         1567.21	         -62.305
     616	 2.03303	  1.0182	        -1626.17	         1563.93	        -62.2345
     617	  2.0297	 1.02536	        -1623.58	         1561.38	        -62.2045
     618	 2.02817	 1.02775	        -1622.41	          1560.2	        -62.2055
     619	 2.02866	  1.0247	        -1622.79	         1560.58	        -62.2099
     620	 2.03111	 1.01638	         -1624.7	         1562.46	        -62.2318
     621	 2.03502	 1.00442	        -1627.75	         1565.46	        -62.2883
     622	 2.03919	0.992495	        -1631.03	         1568.67	        -62.3608
     623	 2.04206	0.985384	        -1633.31	         1570.87	        -62.4408
     624	 2.04195	0.988074	        -1633.32	         1570.79	        -62.5319
     625	  2.0372	 1.00542	        -1629.75	         1567.14	        -62.6161
     626	 2.02666	 1.04074	        -1621.67	         1559.04	        -62.6299
     627	 2.01088	 1.09244	        -1609.42	         1546.92	        -62.4994
     628	 1.99296	 1.15109	        -1595.46	         1533.16	        -62.2956
     629	 1.97699	 1.20397	        -1583.12	          1520.9	        -62.2154
     630	 1.96521	 1.24435	        -1574.07	         1511.85	        -62.2236
     631	 1.95814	 1.27069	        -1568.61	         1506.42	        -62.1824
     632	 1.95645	 1.28073	        -1567.26	         1505.12	        -62.1448
     633	 1.96044	 1.27323	        -1570.38	         1508.19	        -62.1937
     634	   1.969	 1.25166	        -1577.06	         1514.76	        -62.2991
     635	 1.97991	 1.22271	        -1585.52	         1523.14	        -62.3809
     636	 1.99127	 1.19227	        -1594.27	         1531.86	        -62.4019
     637	 2.00214	  1.1633	        -1602.61	         1540.21	        -62.3987
     638	   2.012	 1.13746	        -1610.22	         1547.78	        -62.4337
     639	 2.01985	 1.11794	        -1616.32	         1553.81	        -62.5076
     640	 2.02426	 1.10921	        -1619.74	          1557.2	          -62.54
     641	 2.02471	 1.11307	        -1620.01	         1557.54	        -62.4626
     642	 2.02249	 1.12574	        -1618.19	         1555.84	        -62.3448
     643	 2.01945	 1.14151	        -1615.84	         1553.51	        -62.3344
     644	 2.01577	 1.15974	         -1613.1	         1550.68	        -62.4157
     645	 2.01017	 1.18414	        -1608.84	         1546.38	        -62.4589
     646	 2.00198	 1.21647	         -1602.5	         1540.09	        -62.4101
     647	 1.99231	 1.25321	        -1594.94	         1532.66	        -62.2766
     648	 1.98396	  1.2861	        -1588.37	         1526.25	         -62.123
     649	 1.97987	 1.30621	        -1585.19	         1523.11	        -62.0842
     650	  1.9809	 1.31097	        -1586.11	          1523.9	        -62.2096
     651	 1.98495	  1.3066	         -1589.4	         1527.01	        -62.3824
     652	 1.98885	 1.30254	         -1592.5	         1530.01	        -62.4925
     653	 1.99025	 1.30548	        -1593.61	         1531.08	        -62.5334
     654	 1.98813	 1.31821	        -1591.99	         1529.45	        -62.5322
     655	 1.98252	 1.34053	        -1587.64	         1525.14	        -62.4981
     656	 1.97425	 1.36977	        -1581.22	         1518.79	        -62.4262
     657	   1.965	 1.40075	        -1574.01	         1511.69	         -62.324
     658	   1.957	 1.42659	        -1567.77	         1505.54	        -62.2307
     659	  1.9523	 1.44092	        -1564.12	         1501.93	        -62.1828
     660	 1.95214	 1.43996	        -1563.99	         1501.82	        -62.1764
     661	 1.95688	 1.42268	        -1567.65	         1505.45	         -62.195
     662	 1.96616	  1.3902	        -1574.82	         1512.58	        -62.2398
     663	 1.97897	 1.34577	        -1584.72	         1522.42	        -62.3079
     664	 1.99375	 1.29444	        -1596.15	         1533.77	        -62.3784
     665	 2.00879	  1.2419	        -1607.76	         1545.32	        -62.4396
     666	 2.02241	 1.19357	        -1618.27	         1555.78	         -62.493
     667	 2.03317	 1.15432	        -1626.57	         1564.04	         -62.528
     668	 2.04006	 1.12758	        -1631.87	         1569.33	        -62.5365
     669	 2.04263	  1.1149	        -1633.84	         1571.31	        -62.5292
     670	 2.04094	 1.11622	        -1632.53	         1570.01	        -62.5141
     671	 2.03538	 1.13031	        -1628.23	         1565.74	        -62.4865
     672	 2.02677	 1.15459	        -1621.55	         1559.13	        -62.4269
     673	 2.01666	 1.18439	        -1613.69	         1551.37	        -62.3216
     674	 2.00732	 1.21284	        -1606.42	         1544.19	        -62.2283
     675	 2.00056	  1.2342	        -1601.26	            1539	        -62.2592
     676	 1.99605	 1.24917	        -1597.94	         1535.54	        -62.4001
     677	 1.99179	 1.26379	        -1594.74	         1532.26	        -62.4798
     678	 1.98673	 1.28109	        -1590.77	         1528.38	        -62.3923
     679	 1.98251	   1.296	        -1587.38	         1525.14	        -62.2413
     680	 1.98163	  1.3007	         -1586.7	         1524.46	         -62.235
     681	 1.98427	 1.29456	        -1588.86	         1526.49	        -62.3719
     682	 1.98818	 1.28436	        -1591.97	         1529.49	        -62.4733
     683	 1.99132	 1.27607	        -1594.38	          1531.9	        -62.4798
     684	 1.99309	 1.27129	        -1595.71	         1533.26	        -62.4515
     685	 1.99368	 1.26953	        -1596.15	         1533.71	        -62.4362
     686	 1.99329	 1.27042	        -1595.84	         1533.42	         -62.427
     687	 1.99215	 1.27353	        -1594.94	         1532.54	        -62.4026
     688	 1.99075	 1.27756	        -1593.84	         1531.46	        -62.3806
     689	 1.98949	 1.28127	         -1592.9	          1530.5	        -62.4018
     690	 1.98812	 1.28536	         -1591.9	         1529.44	         -62.461
     691	 1.98581	 1.29213	        -1590.18	         1527.67	        -62.5063
     692	 1.98205	 1.30288	        -1587.27	         1524.78	        -62.4894
     693	 1.97755	 1.31536	        -1583.71	         1521.33	        -62.3791
     694	 1.97458	 1.32271	        -1581.28	         1519.04	        -62.2322
     695	 1.97566	 1.31708	        -1582.06	         1519.87	        -62.1837
     696	  1.9815	 1.29622	        -1586.62	         1524.36	        -62.2555
     697	 1.99063	 1.26463	        -1593.71	         1531.37	        -62.3379
     698	 2.00116	 1.22804	        -1601.81	         1539.46	        -62.3525
     699	 2.01209	 1.18941	         -1610.2	         1547.86	        -62.3456
     700	 2.02286	 1.15058	        -1618.51	         1556.12	        -62.3894
     701	 2.03224	  1.1154	        -1625.79	         1563.33	        -62.4634
     702	 2.03871	 1.08879	        -1630.79	         1568.29	        -62.4929
     703	 2.04155	 1.07306	        -1632.93	         1570.48	        -62.4521
     704	 2.04134	 1.06661	         -1632.7	         1570.32	        -62.3828
     705	 2.03927	   1.066	        -1631.07	         1568.73	         -62.336
     706	 2.03628	 1.06858	        -1628.76	         1566.43	        -62.3237
     707	 2.03267	 1.07339	        -1625.99	         1563.66	        -62.3367
     708	 2.02827	 1.08077	        -1622.63	         1560.28	        -62.3539
     709	 2.02289	 1.09114	         -1618.5	         1556.15	        -62.3472
     710	 2.01683	 1.10344	         -1613.8	          1551.5	        -62.3064
     711	 2.01112	 1.11447	        -1609.35	         1547.11	        -62.2382
     712	 2.00737	 1.11945	        -1606.39	         1544.23	        -62.1673
     713	 2.00718	 1.11355	        -1606.22	         1544.09	        -62.1291
     714	 2.01151	 1.09402	        -1609.54	         1547.41	        -62.1301
     715	 2.02038	  1.0609	        -1616.38	         1554.22	        -62.1614
     716	 2.03294	 1.01669	         -1626.1	         1563.87	        -62.2309
     717	 2.04753	0.966516	         -1637.4	         1575.07	         -62.333
     718	 2.06179	 0.91748	        -1648.47	         1586.02	        -62.4493
     719	 2.07315	 0.87735	         -1657.3	         1594.75	        -62.5575
     720	 2.07935	0.852911	        -1662.13	         1599.51	        -62.6207
     721	 2.07922	0.847756	           -1662	         1599.41	        -62.5964
     722	 2.07337	 0.86012	        -1657.39	         1594.92	         -62.473
     723	 2.06433	0.882602	        -1650.28	         1587.98	        -62.3017
     724	 2.05552	0.905142	        -1643.37	         1581.21	        -62.1664
     725	 2.04971	0.919621	        -1638.86	         1576.75	        -62.1118
     726	 2.04813	0.922615	        -1637.67	         1575.53	        -62.1341
     727	 2.05032	0.915577	        -1639.44	         1577.22	        -62.2223
     728	 2.05439	0.904113	        -1642.69	         1580.34	         -62.352
     729	 2.05766	0.896201	        -1645.32	         1582.86	        -62.4669
     730	 2.05772	0.898949	        -1645.43	          1582.9	        -62.5282
     731	 2.05319	0.916247	        -1641.96	         1579.42	        -62.5455
     732	 2.04374	0.948744	        -1634.69	         1572.16	        -62.5304
     733	 2.03009	0.994135	        -1624.13	         1561.68	        -62.4519
     734	 2.01437	 1.04593	        -1611.89	          1549.6	        -62.2913
     735	 2.00003	 1.09343	        -1600.74	          1538.6	        -62.1417
     736	 1.99019	 1.12697	        -1593.16	         1531.04	          -62.12
     737	 1.98566	 1.14385	        -1589.75	         1527.55	         -62.199
     738	  1.9853	 1.14735	        -1589.54	         1527.28	         -62.256
     739	 1.98806	 1.14059	        -1591.62	          1529.4	        -62.2232
     740	 1.99415	 1.12295	        -1596.22	         1534.08	        -62.1419
     741	 2.00437	 1.09225	        -1604.06	         1541.92	        -62.1427
     742	 2.01791	 1.05107	         -1614.6	         1552.32	         -62.277
     743	 2.03183	 1.00873	        -1625.42	         1563.01	        -62.4051
     744	 2.04311	0.974624	        -1634.12	         1571.68	        -62.4463
     745	 2.05022	0.953453	        -1639.58	         1577.14	         -62.439
     746	 2.05282	 0.94641	        -1641.56	         1579.13	        -62.4277
     747	 2.05104	 0.95328	        -1640.18	         1577.77	        -62.4168
     748	  2.0453	0.972853	        -1635.74	         1573.36	        -62.3797
     749	 2.03667	 1.00187	        -1629.02	         1566.73	         -62.292
     750	 2.02715	 1.03422	         -1621.6	         1559.42	        -62.1746
     751	 2.01919	 1.06237	         -1615.4	          1553.3	        -62.0954
     752	 2.01445	 1.08105	        -1611.77	         1549.66	        -62.1043
     753	 2.01303	 1.08976	        -1610.76	         1548.58	        -62.1794
     754	 2.01376	 1.09183	        -1611.39	         1549.14	        -62.2567
     755	 2.01529	 1.09118	         -1612.6	         1550.31	        -62.2945
     756	 2.01687	 1.08994	        -1613.82	         1551.52	         -62.295
     757	 2.01845	 1.08835	        -1615.02	         1552.74	        -62.2835
     758	  2.0202	 1.08602	        -1616.38	         1554.08	        -62.2941
     759	 2.02191	 1.08367	        -1617.75	         1555.39	        -62.3528
     760	 2.02252	 1.08442	        -1618.31	         1555.87	        -62.4456
     761	 2.02047	 1.09295	        -1616.81	         1554.29	        -62.5156
     762	 2.01463	 1.11253	        -1612.32	          1549.8	        -62.5166
     763	 2.00511	 1.14262	        -1604.96	         1542.49	        -62.4664
     764	  1.9931	 1.17947	        -1595.67	         1533.27	        -62.4021
     765	 1.98033	 1.21781	        -1585.78	         1523.47	        -62.3136
     766	 1.96916	  1.2507	        -1577.06	         1514.88	        -62.1796
     767	 1.96248	 1.26938	        -1571.83	         1509.75	        -62.0785
     768	 1.96222	 1.26784	        -1571.69	         1509.55	        -62.1352
     769	 1.96753	 1.24873	        -1575.91	         1513.63	        -62.2811
     770	  1.9757	 1.22026	        -1582.28	          1519.9	        -62.3793
     771	 1.98437	 1.18938	        -1588.99	         1526.57	        -62.4222
     772	 1.99217	 1.16035	        -1594.98	         1532.55	        -62.4296
     773	  1.9985	 1.13523	        -1599.82	         1537.42	        -62.4006
     774	 2.00346	  1.1141	        -1603.58	         1541.23	        -62.3584
     775	 2.00739	 1.09619	        -1606.58	         1544.24	        -62.3407
     776	 2.01028	 1.08171	        -1608.83	         1546.47	        -62.3638
     777	 2.01155	 1.07248	        -1609.84	         1547.44	        -62.4055
     778	 2.01046	 1.07071	        -1609.02	          1546.6	        -62.4145
     779	 2.00707	 1.07627	        -1606.35	            1544	        -62.3523
     780	  2.0028	 1.08488	        -1602.96	         1540.72	        -62.2365
     781	 2.00005	 1.08939	        -1600.75	         1538.61	        -62.1448
     782	 2.00068	 1.08413	        -1601.25	         1539.09	        -62.1581
     783	  2.0046	 1.06935	        -1604.37	          1542.1	        -62.2739
     784	 2.00984	  1.0511	         -1608.5	         1546.12	        -62.3716
     785	  2.0145	 1.03525	        -1612.09	         1549.71	        -62.3784
     786	 2.01792	 1.02382	        -1614.71	         1552.33	        -62.3801
     787	 2.01962	  1.0182	        -1616.08	         1553.64	         -62.444
     788	 2.01842	 1.02209	        -1615.23	         1552.72	        -62.5149
     789	 2.01326	  1.0387	        -1611.26	         1548.75	        -62.5049
     790	 2.00468	 1.06649	        -1604.55	         1542.16	        -62.3807
     791	 1.99519	 1.09789	        -1597.12	         1534.88	        -62.2407
     792	  1.9874	 1.12477	        -1591.14	         1528.89	        -62.2525
     793	 1.98142	 1.14653	         -1586.7	          1524.3	        -62.4062
     794	 1.97504	 1.16966	        -1581.92	          1519.4	        -62.5256
     795	 1.96649	 1.19912	        -1575.33	         1512.83	        -62.4955
     796	 1.95659	 1.23231	        -1567.57	         1505.23	        -62.3357
     797	 1.94842	 1.25992	        -1561.13	         1498.96	        -62.1701
     798	 1.94507	 1.27264	        -1558.52	         1496.38	        -62.1447
     799	 1.94709	 1.26861	        -1560.22	         1497.93	        -62.2874
     800	 1.95211	 1.25479	        -1564.26	         1501.79	        -62.4709
     801	 1.95699	 1.24041	        -1568.07	         1505.54	        -62.5294
     802	 1.96073	 1.22848	         -1570.8	         1508.41	        -62.3957
     803	 1.96547	 1.21268	        -1574.25	         1512.05	        -62.2024
     804	 1.97408	 1.18438	        -1580.84	         1518.66	        -62.1758
     805	 1.98667	  1.1436	        -1590.66	         1528.33	        -62.3323
     806	 2.00013	     1.1	        -1601.17	         1538.67	        -62.5094
     807	 2.01075	 1.06477	        -1609.42	         1546.82	         -62.591
     808	 2.01653	 1.04406	        -1613.82	         1551.26	        -62.5538
     809	 2.01774	 1.03731	        -1614.64	         1552.19	         -62.446
     810	 2.01606	 1.03972	        -1613.26	          1550.9	         -62.355
     811	 2.01309	 1.04676	        -1610.95	         1548.62	        -62.3213
     812	  2.0096	 1.05645	        -1608.25	         1545.94	        -62.3125
     813	 2.00581	 1.06821	        -1605.34	         1543.03	        -62.3104
     814	 2.00174	 1.08194	        -1602.23	         1539.91	        -62.3239
     815	 1.99725	 1.09814	        -1598.79	         1536.46	        -62.3342
     816	 1.99226	   1.117	        -1594.94	         1532.62	         -62.323
     817	 1.98703	 1.13757	        -1590.92	         1528.61	        -62.3167
     818	 1.98174	 1.15908	         -1586.9	         1524.54	        -62.3519
     819	 1.97589	 1.18266	        -1582.48	         1520.05	        -62.4282
     820	 1.96835	 1.21132	        -1576.77	         1514.26	        -62.5033
     821	 1.95813	 1.24762	        -1568.93	         1506.41	        -62.5204
     822	 1.94536	 1.29075	        -1559.05	          1496.6	        -62.4461
     823	 1.93193	 1.33483	        -1548.57	         1486.29	        -62.2813
     824	 1.92133	  1.3693	        -1540.23	         1478.15	        -62.0811
     825	 1.91739	  1.3826	         -1537.1	         1475.12	         -61.976
     826	 1.92193	 1.36906	        -1540.66	         1478.61	        -62.0522
     827	  1.9335	 1.33317	        -1549.73	          1487.5	        -62.2298
     828	 1.94856	 1.28571	        -1561.44	         1499.07	        -62.3754
     829	  1.9638	 1.23678	        -1573.21	         1510.77	        -62.4393
     830	 1.97725	 1.19259	        -1583.55	          1521.1	        -62.4505
     831	   1.988	 1.15625	        -1591.81	         1529.35	        -62.4561
     832	 1.99545	 1.12986	        -1597.55	         1535.08	        -62.4765
     833	 1.99905	 1.11535	        -1600.33	         1537.84	        -62.4867
     834	 1.99866	 1.11324	        -1599.98	         1537.54	        -62.4409
     835	 1.99527	 1.12058	        -1597.26	         1534.93	          -62.33
     836	 1.99101	 1.13088	        -1593.88	         1531.66	        -62.2173
     837	 1.98801	 1.13761	        -1591.56	         1529.36	        -62.1944
     838	 1.98688	 1.13885	        -1590.77	          1528.5	        -62.2768
     839	 1.98645	 1.13805	        -1590.55	         1528.16	        -62.3873
     840	 1.98499	 1.14018	        -1589.49	         1527.04	        -62.4543
     841	 1.98155	 1.14782	        -1586.86	          1524.4	        -62.4626
     842	 1.97642	 1.15994	        -1582.88	         1520.46	        -62.4212
     843	 1.97112	 1.17213	        -1578.71	         1516.39	        -62.3173
     844	 1.96826	 1.17674	         -1576.4	          1514.2	        -62.2044
     845	 1.97002	 1.16697	        -1577.81	         1515.55	        -62.2622
     846	 1.97559	 1.14522	        -1582.25	         1519.83	        -62.4285
     847	 1.98205	 1.12035	        -1587.29	         1524.78	        -62.5098
     848	 1.98741	 1.09808	        -1591.38	          1528.9	         -62.477
     849	 1.99179	 1.07827	        -1594.62	         1532.26	        -62.3605
     850	 1.99676	 1.05653	        -1598.34	         1536.08	        -62.2537
     851	 2.00369	 1.02912	        -1603.66	          1541.4	        -62.2597
     852	 2.01206	0.997987	        -1610.19	         1547.83	        -62.3561
     853	 2.01979	0.969729	        -1616.22	         1553.77	        -62.4485
     854	 2.02477	0.950809	        -1620.07	         1557.59	        -62.4783
     855	 2.02604	0.944195	        -1621.01	         1558.57	        -62.4387
     856	 2.02403	0.948727	        -1619.38	         1557.02	        -62.3538
     857	 2.02013	0.960365	         -1616.3	         1554.03	        -62.2661
     858	 2.01587	0.974549	        -1612.98	         1550.75	        -62.2251
     859	   2.012	0.988848	        -1610.04	         1547.78	        -62.2542
     860	 2.00814	 1.00416	        -1607.14	         1544.82	        -62.3222
     861	 2.00329	  1.0232	        -1603.47	          1541.1	        -62.3712
     862	  1.9968	 1.04756	        -1598.48	         1536.11	         -62.371
     863	  1.9889	 1.07617	        -1592.38	         1530.04	        -62.3388
     864	 1.98046	 1.10602	        -1585.87	         1523.56	          -62.31
     865	 1.97245	 1.13394	         -1579.7	         1517.41	        -62.2904
     866	 1.96581	 1.15703	        -1574.55	         1512.31	        -62.2437
     867	 1.96182	 1.17141	        -1571.42	         1509.25	        -62.1708
     868	 1.96183	 1.17295	        -1571.42	         1509.25	        -62.1657
     869	  1.9658	 1.16173	        -1574.57	          1512.3	        -62.2653
     870	 1.97182	 1.14358	        -1579.31	         1516.93	        -62.3837
     871	 1.97747	 1.12574	        -1583.71	         1521.26	        -62.4481
     872	 1.98123	 1.11272	        -1586.59	         1524.15	        -62.4401
     873	 1.98301	 1.10485	        -1587.89	         1525.52	        -62.3672
     874	 1.98404	 1.09874	        -1588.58	         1526.31	        -62.2631
     875	 1.98613	 1.08923	         -1590.1	         1527.92	        -62.1811
     876	  1.9907	 1.07242	         -1593.6	         1531.43	        -62.1686
     877	 1.99784	 1.04829	        -1599.15	         1536.91	        -62.2406
     878	 2.00609	 1.02145	         -1605.6	         1543.24	        -62.3592
     879	 2.01309	0.999095	        -1611.07	         1548.62	        -62.4518
     880	 2.01693	0.987076	        -1614.04	         1551.57	        -62.4687
     881	 2.01704	0.987233	        -1614.07	         1551.65	        -62.4205
     882	 2.01405	0.997709	        -1611.72	         1549.36	         -62.357
     883	 2.00902	 1.01538	        -1607.81	         1545.49	         -62.319
     884	 2.00267	 1.03798	        -1602.93	         1540.62	        -62.3093
     885	 1.99534	 1.06437	        -1597.29	         1534.99	        -62.3058
     886	 1.98722	 1.09363	        -1591.05	         1528.76	        -62.2947
     887	 1.97865	 1.12438	        -1584.46	         1522.17	        -62.2826
     888	    1.97	  1.1551	         -1577.8	         1515.53	        -62.2712
     889	 1.96169	 1.18422	        -1571.39	         1509.15	        -62.2398
     890	 1.95448	 1.20922	        -1565.79	         1503.61	        -62.1802
     891	 1.94949	 1.22652	         -1561.9	         1499.78	        -62.1216
     892	 1.94776	 1.23284	        -1560.55	         1498.45	        -62.1008
     893	 1.94963	 1.22714	        -1562.02	         1499.89	        -62.1307
     894	 1.95449	 1.21122	        -1565.81	         1503.61	        -62.1997
     895	 1.96099	 1.18906	        -1570.89	         1508.61	        -62.2849
     896	 1.96752	 1.16556	        -1575.98	         1513.62	        -62.3618
     897	 1.97265	 1.14498	        -1579.97	         1517.57	        -62.4044
     898	  1.9757	 1.12951	        -1582.31	         1519.91	        -62.3969
     899	 1.97694	 1.11843	        -1583.21	         1520.86	        -62.3478
     900	 1.97751	 1.10849	        -1583.57	         1521.29	        -62.2749
     901	  1.9791	 1.09497	         -1584.7	         1522.52	        -62.1815
     902	 1.98371	 1.07233	        -1588.15	         1526.06	        -62.0978
     903	 1.99278	 1.03647	        -1595.14	         1533.03	        -62.1164
     904	 2.00576	0.989286	        -1605.26	         1542.99	        -62.2683
     905	 2.01968	0.939884	        -1616.13	         1553.69	        -62.4479
     906	 2.03097	0.899164	         -1624.9	         1562.36	        -62.5453
     907	  2.0374	0.873837	        -1629.83	         1567.29	        -62.5341
     908	 2.03883	0.864454	        -1630.83	         1568.39	          -62.44
     909	 2.03677	0.866602	        -1629.13	         1566.81	        -62.3163
     910	 2.03341	0.873874	        -1626.46	         1564.23	        -62.2304
     911	 2.03029	0.881536	        -1624.05	         1561.83	        -62.2231
     912	 2.02764	0.888744	        -1622.08	          1559.8	        -62.2773
     913	 2.02463	 0.89774	        -1619.82	         1557.49	        -62.3357
     914	 2.02034	0.910942	        -1616.53	         1554.19	        -62.3474
     915	 2.01465	0.928321	        -1612.12	         1549.82	        -62.3049
     916	 2.00842	0.946995	        -1607.28	         1545.03	        -62.2409
     917	 2.00295	0.962851	        -1603.02	         1540.83	        -62.1876
     918	 1.99939	0.972318	        -1600.25	          1538.1	         -62.153
     919	 1.99851	0.973054	        -1599.57	         1537.43	        -62.1416
     920	 2.00054	0.964393	        -1601.15	         1538.98	        -62.1714
     921	 2.00487	0.948181	        -1604.55	         1542.31	        -62.2409
     922	 2.01019	0.928532	        -1608.71	          1546.4	        -62.3141
     923	 2.01508	0.909983	        -1612.51	         1550.15	         -62.364
     924	 2.01845	0.895971	        -1615.13	         1552.74	        -62.3924
     925	 2.01969	0.888632	        -1616.09	         1553.69	        -62.4044
     926	 2.01857	0.888941	        -1615.23	         1552.83	        -62.4033
     927	 2.01515	0.896868	         -1612.6	         1550.21	        -62.3972
     928	 2.00974	0.911688	        -1608.42	         1546.05	        -62.3775
     929	 2.00297	0.931552	        -1603.17	         1540.85	        -62.3209
     930	 1.99614	0.952595	        -1597.84	          1535.6	        -62.2407
     931	 1.99085	0.969859	        -1593.74	         1531.54	        -62.1971
     932	 1.98803	0.980345	        -1591.61	         1529.38	        -62.2315
     933	 1.98726	0.985085	         -1591.1	         1528.79	         -62.314
     934	 1.98726	0.987725	        -1591.16	         1528.79	        -62.3751
     935	   1.987	0.991175	        -1590.97	         1528.58	        -62.3839
     936	 1.98619	0.996071	        -1590.34	         1527.96	        -62.3755
     937	  1.9848	 1.00237	        -1589.29	          1526.9	        -62.3937
     938	 1.98241	 1.01133	        -1587.48	         1525.06	        -62.4185
     939	 1.97856	 1.02446	        -1584.49	         1522.11	        -62.3882
     940	 1.97364	 1.04064	        -1580.63	         1518.32	        -62.3091
     941	  1.9688	 1.05632	        -1576.86	         1514.61	         -62.247
     942	 1.96509	 1.06854	        -1573.97	         1511.76	        -62.2138
     943	 1.96314	 1.07555	        -1572.44	         1510.26	        -62.1735
     944	 1.96363	 1.07547	        -1572.76	         1510.63	        -62.1289
     945	 1.96717	 1.06646	        -1575.48	         1513.35	        -62.1216
     946	 1.97371	 1.04875	        -1580.55	         1518.38	         -62.176
     947	 1.98211	 1.02585	         -1587.1	         1524.83	        -62.2745
     948	 1.99043	 1.00357	        -1593.59	         1531.22	        -62.3751
     949	 1.99673	0.987711	         -1598.5	         1536.06	        -62.4426
     950	 1.99972	0.982117	        -1600.82	         1538.35	        -62.4709
     951	 1.99891	0.988067	         -1600.2	         1537.73	        -62.4664
     952	 1.99467	 1.00441	        -1596.89	         1534.48	        -62.4097
     953	 1.98852	 1.02671	        -1592.02	         1529.75	         -62.275
     954	 1.98322	 1.04661	         -1587.8	         1525.69	        -62.1187
     955	 1.98167	 1.05534	        -1586.57	         1524.49	        -62.0816
     956	 1.98452	  1.0507	        -1588.88	         1526.68	        -62.2059
     957	 1.98963	 1.03902	        -1592.97	         1530.61	        -62.3678
     958	 1.99401	 1.02911	        -1596.41	         1533.97	         -62.443
     959	 1.99608	 1.02561	        -1597.96	         1535.56	        -62.3999
     960	 1.99635	 1.02694	        -1598.05	         1535.76	        -62.2915
     961	 1.99654	 1.02805	        -1598.11	         1535.91	        -62.2048
     962	  1.9981	 1.02478	        -1599.28	         1537.11	         -62.179
     963	  2.0014	  1.0161	        -1601.85	         1539.65	        -62.2025
     964	 2.00589	 1.00372	        -1605.35	          1543.1	        -62.2543
     965	 2.01051	0.990811	        -1608.94	         1546.64	        -62.3052
     966	 2.01425	0.980376	        -1611.83	         1549.51	        -62.3188
     967	 2.01684	0.973414	        -1613.78	          1551.5	        -62.2816
     968	 2.01884	0.968325	        -1615.26	         1553.04	        -62.2209
     969	 2.02124	0.962338	        -1617.06	         1554.88	        -62.1784
     970	 2.02468	0.953659	        -1619.69	         1557.52	        -62.1735
     971	 2.02912	0.942539	        -1623.13	         1560.93	         -62.199
     972	 2.03393	0.930943	        -1626.86	         1564.62	        -62.2365
     973	 2.03823	 0.92154	         -1630.2	         1567.93	        -62.2709
     974	 2.04121	0.916826	        -1632.52	         1570.22	        -62.2987
     975	 2.04218	0.918803	        -1633.29	         1570.97	         -62.324
     976	 2.04061	0.929069	        -1632.11	         1569.76	        -62.3485
     977	 2.03607	0.948798	        -1628.64	         1566.27	        -62.3633
     978	 2.02846	0.978209	        -1622.77	         1560.42	        -62.3503
     979	 2.01826	 1.01564	        -1614.89	         1552.59	        -62.2962
     980	 2.00679	 1.05699	        -1605.99	         1543.78	        -62.2097
     981	 1.99598	  1.0963	         -1597.6	         1535.48	         -62.124
     982	 1.98772	 1.12771	        -1591.21	         1529.14	        -62.0773
     983	 1.98318	 1.14753	        -1587.74	         1525.65	        -62.0842
     984	 1.98253	 1.15522	        -1587.28	         1525.15	        -62.1311
     985	 1.98508	 1.15275	        -1589.31	         1527.11	        -62.1945
     986	 1.98977	 1.14337	        -1592.97	         1530.71	        -62.2602
     987	 1.99543	 1.13069	        -1597.38	         1535.06	        -62.3206
     988	 2.00102	 1.11801	        -1601.71	         1539.35	        -62.3567
     989	 2.00599	 1.10734	        -1605.52	         1543.17	        -62.3545
     990	 2.01035	 1.09882	        -1608.87	         1546.52	        -62.3489
     991	 2.01415	  1.0925	        -1611.81	         1549.43	         -62.379
     992	 2.01684	 1.09011	        -1613.92	          1551.5	        -62.4209
     993	 2.01764	 1.09397	        -1614.57	         1552.12	        -62.4519
     994	  2.0159	 1.10577	        -1613.27	         1550.78	        -62.4847
     995	 2.01114	 1.12672	        -1609.62	         1547.12	        -62.5042
     996	 2.00335	  1.1566	         -1603.6	         1541.14	        -62.4506
     997	 1.99396	 1.19111	        -1596.24	         1533.93	        -62.3121
     998	 1.98562	   1.222	        -1589.73	         1527.53	        -62.2001
     999	 1.98043	  1.2428	        -1585.76	         1523.54	        -62.2182
