    Step 	 temperature 	 pressure 	 Potential Energy 	 Kinetic Energy 	 Sum Energy

       0	  2.1705	-1.56143	        -9389.83	         8934.58	        -455.251
       1	 2.17057	-1.55797	        -9390.16	         8934.88	         -455.28
       2	 2.17072	-1.54737	        -9390.84	          8935.5	        -455.349
       3	 2.17074	-1.52898	        -9391.05	         8935.58	         -455.47
       4	 2.17027	-1.50171	        -9389.31	         8933.65	        -455.656
       5	 2.16876	-1.46391	        -9383.36	         8927.44	        -455.927
       6	 2.16541	-1.41326	        -9369.96	         8913.65	        -456.307
       7	 2.15912	-1.34662	        -9344.56	         8887.74	        -456.819
       8	 2.14842	-1.25999	        -9301.19	         8843.73	        -457.461
       9	 2.13161	-1.14878	        -9232.69	         8774.54	         -458.15
      10	 2.10708	 -1.0089	         -9132.2	         8673.54	        -458.663
      11	 2.07409	-0.839028	        -8996.48	         8537.76	        -458.721
      12	 2.03359	-0.643002	         -8829.4	         8371.07	        -458.332
      13	 1.98801	-0.429332	        -8641.27	         8183.47	        -457.797
      14	 1.94036	-0.208205	        -8444.53	         7987.35	        -457.187
      15	 1.89379	0.0097955	         -8252.1	         7795.65	        -456.449
      16	 1.85151	0.213823	         -8077.4	         7621.62	        -455.783
      17	 1.81619	0.394717	        -7931.69	         7476.27	        -455.421
      18	 1.78932	0.547154	        -7821.03	         7365.66	        -455.362
      19	 1.77113	0.669711	        -7746.27	          7290.8	        -455.467
      20	 1.76109	0.763501	         -7705.1	         7249.46	        -455.636
      21	 1.75827	 0.83101	        -7693.72	         7237.87	        -455.849
      22	 1.76154	0.875633	        -7707.44	         7251.31	        -456.126
      23	 1.76951	0.901638	        -7740.59	         7284.12	        -456.476
      24	 1.78061	0.914023	        -7786.65	          7329.8	        -456.852
      25	 1.79326	0.917883	        -7839.04	         7381.88	        -457.162
      26	 1.80623	0.917395	        -7892.56	         7435.24	        -457.315
      27	 1.81888	0.914931	        -7944.62	         7487.31	        -457.313
      28	 1.83116	0.911117	        -7995.14	         7537.87	        -457.264
      29	 1.84326	0.905893	        -8044.93	         7587.68	         -457.25
      30	 1.85526	0.899436	        -8094.37	         7637.05	        -457.322
      31	  1.8669	0.892745	        -8142.52	            7685	        -457.525
      32	 1.87755	0.887967	        -8186.61	         7728.82	        -457.789
      33	 1.88641	0.887591	        -8223.23	         7765.29	        -457.938
      34	 1.89313	0.892758	        -8250.81	         7792.95	        -457.861
      35	 1.89816	 0.90219	        -8271.25	         7813.62	        -457.629
      36	 1.90242	0.913031	        -8288.68	         7831.18	          -457.5
      37	 1.90658	 0.92326	         -8305.9	         7848.32	        -457.579
      38	  1.9107	0.932738	        -8322.93	         7865.26	        -457.667
      39	 1.91467	0.941688	        -8339.28	         7881.58	        -457.699
      40	 1.91849	0.949964	        -8355.06	         7897.34	        -457.724
      41	 1.92229	0.957285	        -8370.66	         7912.97	        -457.689
      42	 1.92634	0.962871	        -8387.23	         7929.63	          -457.6
      43	 1.93103	0.965616	        -8406.52	         7948.95	        -457.574
      44	 1.93652	0.965166	        -8429.23	         7971.53	        -457.696
      45	  1.9424	0.962805	         -8453.7	         7995.72	        -457.982
      46	  1.9477	0.961458	        -8475.83	         8017.56	        -458.267
      47	 1.95152	0.963992	        -8491.57	         8033.27	        -458.303
      48	 1.95372	0.970845	         -8500.4	         8042.34	        -458.055
      49	 1.95514	0.979637	         -8505.9	         8048.18	        -457.726
      50	 1.95689	 0.98712	        -8512.93	         8055.36	         -457.57
      51	 1.95955	0.991656	        -8523.96	         8066.31	         -457.65
      52	 1.96291	0.993972	        -8538.02	         8080.16	         -457.86
      53	 1.96624	0.996309	        -8551.99	         8093.84	        -458.151
      54	 1.96848	 1.00175	        -8561.54	         8103.07	         -458.47
      55	 1.96859	  1.0134	        -8562.21	         8103.55	        -458.668
      56	 1.96601	 1.03296	        -8551.58	         8092.91	        -458.668
      57	 1.96088	 1.05985	        -8530.31	         8071.78	         -458.53
      58	 1.95393	 1.09174	        -8501.51	          8043.2	        -458.311
      59	 1.94629	 1.12519	        -8469.79	         8011.76	        -458.031
      60	 1.93928	 1.15608	        -8440.67	          7982.9	        -457.769
      61	 1.93412	 1.18058	        -8419.29	         7961.67	        -457.613
      62	 1.93164	 1.19612	        -8409.01	         7951.44	        -457.571
      63	 1.93215	  1.2017	        -8411.15	         7953.55	        -457.597
      64	 1.93561	 1.19748	        -8425.48	         7967.79	        -457.689
      65	 1.94151	 1.18495	        -8450.06	         7992.07	        -457.991
      66	 1.94861	 1.16789	         -8479.7	         8021.31	        -458.396
      67	 1.95539	 1.15109	        -8507.78	          8049.2	        -458.576
      68	 1.96091	 1.13741	        -8530.49	          8071.9	        -458.587
      69	 1.96485	 1.12786	        -8546.71	         8088.14	        -458.573
      70	  1.9672	 1.12269	        -8556.31	         8097.83	        -458.481
      71	 1.96825	 1.12115	        -8560.44	         8102.11	        -458.329
      72	 1.96849	 1.12175	        -8561.29	          8103.1	         -458.19
      73	 1.96842	 1.12299	        -8560.96	         8102.83	        -458.123
      74	 1.96833	 1.12403	        -8560.59	         8102.48	         -458.11
      75	 1.96833	 1.12449	        -8560.57	         8102.47	        -458.104
      76	 1.96846	  1.1242	        -8561.13	            8103	        -458.128
      77	 1.96867	 1.12321	        -8562.06	         8103.86	        -458.205
      78	 1.96881	 1.12197	        -8562.63	         8104.42	        -458.212
      79	   1.969	 1.12017	        -8563.21	         8105.22	        -457.991
      80	 1.96999	 1.11562	        -8567.01	         8109.28	        -457.735
      81	 1.97253	 1.10607	        -8577.44	         8119.73	        -457.705
      82	 1.97665	 1.09154	        -8594.58	         8136.71	        -457.871
      83	 1.98162	 1.07433	        -8615.32	         8157.17	        -458.156
      84	 1.98626	 1.05801	        -8634.72	         8176.26	        -458.461
      85	 1.98935	  1.0463	        -8647.64	         8188.97	        -458.675
      86	 1.99006	 1.04178	        -8650.57	         8191.89	        -458.685
      87	 1.98836	 1.04461	        -8643.34	         8184.92	        -458.428
      88	 1.98516	 1.05218	         -8629.8	         8171.73	        -458.068
      89	  1.9817	 1.06067	        -8615.35	          8157.5	        -457.845
      90	 1.97892	 1.06732	        -8603.77	         8146.05	        -457.724
      91	 1.97737	 1.07039	        -8597.31	         8139.68	        -457.633
      92	  1.9774	 1.06873	        -8597.47	         8139.81	        -457.657
      93	   1.979	 1.06236	        -8604.13	         8146.37	        -457.762
      94	 1.98185	 1.05226	        -8615.97	          8158.1	        -457.864
      95	 1.98549	 1.03978	        -8631.17	         8173.11	        -458.058
      96	 1.98916	  1.0273	        -8646.51	         8188.19	        -458.315
      97	 1.99187	 1.01778	        -8657.83	         8199.34	        -458.491
      98	 1.99291	 1.01339	        -8662.18	         8203.64	        -458.536
      99	 1.99212	 1.01469	        -8658.79	         8200.36	        -458.426
     100	 1.98989	 1.02055	        -8649.41	          8191.2	         -458.21
     101	 1.98702	 1.02862	        -8637.41	         8179.39	         -458.02
     102	 1.98423	 1.03674	        -8625.86	         8167.92	         -457.94
     103	 1.98188	 1.04379	        -8616.22	         8158.24	        -457.982
     104	 1.97991	 1.04985	        -8608.21	         8150.12	        -458.085
     105	 1.97807	 1.05557	        -8600.71	         8142.56	        -458.145
     106	 1.97627	 1.06119	        -8593.27	         8135.15	        -458.121
     107	  1.9747	 1.06615	        -8586.74	          8128.7	        -458.044
     108	 1.97373	 1.06938	         -8582.7	          8124.7	        -457.998
     109	 1.97357	  1.0703	        -8582.12	         8124.03	         -458.09
     110	 1.97394	 1.06971	        -8583.86	         8125.56	        -458.304
     111	 1.97415	  1.0697	         -8584.9	         8126.42	        -458.484
     112	 1.97357	 1.07208	        -8582.53	         8124.03	        -458.498
     113	 1.97212	 1.07703	        -8576.38	         8118.07	         -458.31
     114	 1.97041	 1.08276	        -8569.02	            8111	        -458.016
     115	 1.96932	 1.08651	         -8564.4	         8106.54	        -457.861
     116	 1.96931	 1.08689	        -8564.49	          8106.5	        -457.991
     117	 1.96994	 1.08517	        -8567.32	         8109.09	        -458.232
     118	 1.97041	 1.08371	        -8569.37	         8111.03	        -458.338
     119	 1.97035	 1.08355	        -8569.02	         8110.79	        -458.232
     120	 1.97012	 1.08359	        -8567.83	         8109.84	        -457.998
     121	 1.97052	 1.08144	         -8569.3	         8111.49	        -457.814
     122	  1.9722	 1.07523	        -8576.18	         8118.37	        -457.814
     123	 1.97516	 1.06492	        -8588.54	         8130.57	        -457.975
     124	 1.97887	 1.05221	           -8604	         8145.83	        -458.172
     125	 1.98262	 1.03918	        -8619.57	         8161.29	         -458.28
     126	 1.98598	 1.02722	        -8633.41	          8175.1	        -458.315
     127	 1.98872	 1.01694	        -8644.75	         8186.38	        -458.375
     128	 1.99068	 1.00894	        -8652.81	         8194.45	        -458.358
     129	 1.99206	 1.00285	        -8658.23	         8200.12	        -458.107
     130	 1.99359	 0.99642	        -8664.41	         8206.43	        -457.984
     131	 1.99557	0.988764	        -8672.79	         8214.58	        -458.211
     132	 1.99736	0.982025	        -8680.25	         8221.93	        -458.319
     133	 1.99848	0.977622	         -8684.8	         8226.55	        -458.242
     134	 1.99902	0.975247	        -8686.98	         8228.77	        -458.205
     135	 1.99908	0.974653	        -8687.26	         8229.01	        -458.243
     136	 1.99856	0.976166	        -8685.18	         8226.87	        -458.312
     137	 1.99728	0.980319	        -8679.97	         8221.61	        -458.361
     138	 1.99515	0.987357	        -8671.21	         8212.85	        -458.363
     139	 1.99227	0.996943	        -8659.31	         8200.99	        -458.322
     140	 1.98895	 1.00814	        -8645.55	         8187.34	        -458.215
     141	 1.98572	 1.01938	        -8632.13	         8174.03	        -458.098
     142	 1.98305	 1.02917	        -8621.16	         8163.04	        -458.112
     143	   1.981	 1.03734	        -8612.81	         8154.61	          -458.2
     144	 1.97937	 1.04452	         -8606.1	         8147.91	        -458.197
     145	 1.97812	  1.0508	         -8600.9	         8142.74	        -458.166
     146	 1.97723	 1.05609	        -8597.32	          8139.1	        -458.215
     147	 1.97652	 1.06099	        -8594.44	         8136.16	        -458.285
     148	 1.97569	 1.06625	        -8591.09	         8132.75	         -458.34
     149	 1.97456	 1.07232	        -8586.46	         8128.12	         -458.34
     150	 1.97322	 1.07892	         -8580.8	         8122.58	        -458.227
     151	  1.9721	 1.08464	        -8576.02	         8117.98	        -458.033
     152	 1.97187	 1.08744	        -8574.96	         8117.04	        -457.918
     153	 1.97286	 1.08623	        -8579.13	         8121.12	        -458.007
     154	 1.97474	 1.08196	        -8587.06	         8128.85	        -458.211
     155	 1.97675	 1.07688	        -8595.48	          8137.1	        -458.374
     156	 1.97823	  1.0729	        -8601.66	         8143.22	        -458.442
     157	 1.97891	 1.07086	        -8604.46	         8146.02	        -458.431
     158	  1.9789	 1.07054	         -8604.3	         8145.96	        -458.347
     159	 1.97869	 1.07065	        -8603.21	         8145.08	        -458.125
     160	 1.97926	 1.06849	         -8605.3	         8147.45	        -457.844
     161	 1.98154	 1.06131	        -8614.78	         8156.84	        -457.944
     162	  1.9852	 1.05025	        -8630.25	         8171.89	        -458.358
     163	 1.98881	 1.03974	        -8645.42	         8186.78	        -458.639
     164	 1.99114	 1.03351	        -8655.06	         8196.34	         -458.72
     165	 1.99161	 1.03327	        -8656.91	         8198.29	        -458.626
     166	 1.99034	 1.03875	        -8651.48	         8193.05	        -458.435
     167	  1.9878	 1.04849	        -8640.91	         8182.61	        -458.303
     168	 1.98442	  1.0612	        -8626.92	         8168.68	        -458.244
     169	 1.98046	 1.07597	        -8610.54	         8152.37	        -458.165
     170	 1.97625	 1.09165	        -8593.13	         8135.08	        -458.055
     171	 1.97228	 1.10663	        -8576.67	         8118.72	        -457.952
     172	 1.96903	 1.11931	        -8563.19	         8105.34	        -457.849
     173	   1.967	 1.12813	        -8554.72	         8096.97	         -457.75
     174	 1.96661	 1.13175	        -8553.07	         8095.37	        -457.704
     175	 1.96806	 1.12955	         -8559.1	         8101.36	        -457.736
     176	 1.97122	   1.122	        -8572.24	         8114.37	        -457.875
     177	  1.9755	 1.11085	        -8590.12	         8131.97	        -458.154
     178	 1.97983	 1.09926	         -8608.3	         8149.79	        -458.507
     179	 1.98299	 1.09094	        -8621.54	          8162.8	        -458.735
     180	 1.98425	 1.08811	        -8626.68	         8167.99	        -458.693
     181	 1.98382	 1.09018	        -8624.67	         8166.22	        -458.444
     182	 1.98266	 1.09433	        -8619.61	         8161.44	         -458.17
     183	 1.98183	 1.09743	        -8616.04	         8158.04	        -458.006
     184	 1.98196	 1.09765	         -8616.6	         8158.56	        -458.039
     185	 1.98292	 1.09535	        -8620.73	         8162.53	        -458.191
     186	 1.98412	 1.09239	        -8625.76	         8167.44	        -458.327
     187	 1.98485	 1.09077	        -8628.88	         8170.44	        -458.438
     188	 1.98452	 1.09225	        -8627.63	         8169.12	         -458.51
     189	 1.98277	 1.09796	        -8620.38	          8161.9	        -458.486
     190	  1.9796	 1.10782	         -8607.2	         8148.84	        -458.359
     191	 1.97548	 1.12038	        -8590.03	         8131.87	        -458.161
     192	  1.9712	 1.13322	        -8572.21	         8114.28	        -457.924
     193	 1.96773	 1.14346	        -8557.71	         8099.98	         -457.73
     194	 1.96582	 1.14873	        -8549.83	         8092.14	        -457.688
     195	 1.96571	 1.14833	         -8549.5	         8091.68	        -457.815
     196	 1.96703	 1.14334	        -8555.11	         8097.12	        -457.993
     197	  1.9692	 1.13556	        -8564.13	         8106.03	         -458.11
     198	 1.97177	 1.12632	        -8574.76	         8116.61	        -458.153
     199	 1.97455	 1.11627	        -8586.24	         8128.07	        -458.171
     200	 1.97745	 1.10579	        -8598.22	         8139.99	        -458.229
     201	 1.98024	 1.09562	        -8609.82	         8151.47	        -458.349
     202	 1.98254	   1.087	         -8619.4	         8160.93	        -458.467
     203	 1.98395	 1.08112	        -8625.29	         8166.77	        -458.529
     204	 1.98428	 1.07862	        -8626.65	         8168.13	        -458.525
     205	 1.98358	 1.07932	        -8623.68	         8165.25	        -458.431
     206	 1.98225	 1.08204	        -8617.99	         8159.77	        -458.222
     207	 1.98108	 1.08446	        -8612.86	         8154.93	         -457.93
     208	 1.98104	 1.08362	        -8612.52	         8154.77	        -457.745
     209	 1.98266	 1.07786	         -8619.3	         8161.44	        -457.867
     210	 1.98544	 1.06861	        -8631.09	          8172.9	        -458.193
     211	 1.98821	 1.05935	        -8642.74	         8184.27	        -458.473
     212	 1.98986	 1.05325	        -8649.65	         8191.07	        -458.583
     213	 1.98994	 1.05164	        -8649.91	         8191.41	        -458.494
     214	 1.98875	 1.05371	        -8644.76	          8186.5	        -458.259
     215	  1.9871	 1.05704	        -8637.75	         8179.72	        -458.027
     216	 1.98585	 1.05918	        -8632.47	         8174.57	        -457.901
     217	 1.98551	 1.05866	        -8631.05	         8173.19	        -457.859
     218	 1.98628	 1.05498	        -8634.21	         8176.35	        -457.864
     219	 1.98812	 1.04827	        -8641.81	         8183.91	        -457.895
     220	 1.99083	 1.03911	        -8653.05	         8195.09	        -457.968
     221	 1.99405	 1.02864	        -8666.42	         8208.31	        -458.109
     222	 1.99715	 1.01865	        -8679.36	         8221.09	        -458.274
     223	  1.9995	 1.01114	         -8689.1	         8230.74	        -458.353
     224	 2.00075	 1.00718	        -8694.18	         8235.89	        -458.285
     225	 2.00104	 1.00639	        -8695.27	         8237.11	        -458.155
     226	 2.00076	 1.00765	        -8694.04	         8235.94	        -458.101
     227	 2.00008	 1.01042	        -8691.28	         8233.13	        -458.149
     228	 1.99891	 1.01495	        -8686.51	         8228.32	        -458.189
     229	 1.99719	 1.02136	         -8679.4	         8221.25	        -458.148
     230	 1.99509	 1.02903	        -8670.69	         8212.59	        -458.095
     231	 1.99281	 1.03722	        -8661.32	          8203.2	        -458.115
     232	 1.99035	 1.04584	         -8651.3	         8193.12	        -458.186
     233	 1.98761	 1.05524	        -8640.02	          8181.8	        -458.217
     234	 1.98457	 1.06536	        -8627.48	         8169.31	        -458.167
     235	 1.98153	 1.07536	        -8614.89	          8156.8	        -458.085
     236	 1.97888	  1.0841	        -8603.95	         8145.87	        -458.076
     237	 1.97678	 1.09107	        -8595.41	         8137.25	        -458.156
     238	 1.97515	 1.09663	        -8588.77	         8130.54	        -458.235
     239	 1.97383	 1.10125	        -8583.38	         8125.09	         -458.29
     240	 1.97273	 1.10518	        -8578.86	         8120.57	        -458.282
     241	 1.97195	 1.10819	         -8575.6	         8117.36	        -458.238
     242	 1.97156	 1.10996	        -8574.13	         8115.78	        -458.351
     243	 1.97116	 1.11166	        -8572.73	         8114.12	        -458.606
     244	 1.96995	 1.11566	        -8567.82	         8109.13	        -458.688
     245	 1.96764	 1.12278	         -8558.1	         8099.64	        -458.456
     246	 1.96494	 1.13087	        -8546.58	         8088.51	        -458.076
     247	 1.96305	 1.13629	        -8538.49	         8080.73	        -457.763
     248	 1.96298	 1.13602	        -8538.07	         8080.46	        -457.614
     249	 1.96517	 1.12883	        -8547.06	         8089.44	        -457.612
     250	 1.96945	 1.11516	        -8564.79	         8107.09	        -457.699
     251	 1.97533	 1.09658	        -8589.09	         8131.25	        -457.838
     252	 1.98205	 1.07532	        -8616.98	         8158.95	        -458.027
     253	 1.98875	 1.05412	        -8644.79	         8186.53	        -458.266
     254	 1.99444	 1.03604	        -8668.44	         8209.93	        -458.508
     255	 1.99821	 1.02389	        -8684.11	         8225.45	        -458.665
     256	 1.99955	 1.01929	        -8689.63	         8230.98	        -458.649
     257	 1.99865	 1.02187	        -8685.66	         8227.24	        -458.422
     258	 1.99641	 1.02897	        -8676.11	         8218.02	        -458.088
     259	 1.99408	 1.03691	        -8666.35	         8208.46	        -457.886
     260	 1.99249	 1.04324	        -8659.83	         8201.89	         -457.94
     261	 1.99158	 1.04802	        -8656.31	         8198.16	        -458.147
     262	 1.99078	 1.05288	         -8653.2	         8194.87	        -458.322
     263	 1.98957	 1.05922	        -8648.22	         8189.87	        -458.348
     264	 1.98787	 1.06706	        -8641.18	         8182.91	        -458.273
     265	 1.98601	 1.07534	        -8633.42	         8175.22	        -458.196
     266	 1.98442	 1.08271	        -8626.72	         8168.68	        -458.038
     267	 1.98382	 1.08708	        -8624.02	         8166.23	        -457.796
     268	 1.98499	 1.08608	        -8628.83	         8171.03	        -457.797
     269	 1.98789	 1.07985	        -8641.01	         8182.98	        -458.027
     270	  1.9917	 1.07103	        -8656.88	         8198.64	        -458.246
     271	 1.99542	 1.06253	        -8672.41	         8213.96	        -458.442
     272	 1.99815	 1.05706	        -8683.85	         8225.22	        -458.633
     273	 1.99914	 1.05693	        -8687.95	         8229.26	         -458.69
     274	 1.99816	 1.06283	        -8683.73	         8225.22	        -458.508
     275	 1.99582	 1.07293	        -8673.85	          8215.6	        -458.246
     276	 1.99305	 1.08434	        -8662.37	         8204.23	        -458.138
     277	 1.99044	  1.0953	        -8651.63	         8193.46	         -458.17
     278	 1.98813	 1.10525	        -8642.15	         8183.96	         -458.19
     279	 1.98626	 1.11368	        -8634.42	         8176.27	        -458.151
     280	 1.98509	  1.1197	        -8629.52	         8171.45	        -458.077
     281	 1.98495	 1.12232	        -8628.83	         8170.86	        -457.961
     282	 1.98619	 1.12053	        -8633.83	         8175.95	        -457.874
     283	 1.98892	 1.11398	        -8645.16	         8187.21	        -457.946
     284	 1.99274	 1.10401	        -8661.06	         8202.92	        -458.139
     285	 1.99681	 1.09318	        -8678.02	          8219.7	        -458.314
     286	 2.00036	 1.08391	        -8692.74	         8234.31	         -458.43
     287	 2.00279	 1.07798	        -8702.85	          8244.3	        -458.552
     288	 2.00356	 1.07697	        -8706.17	         8247.48	        -458.683
     289	 2.00224	 1.08216	        -8700.77	         8242.05	        -458.725
     290	 1.99876	 1.09363	        -8686.35	         8227.72	        -458.624
     291	 1.99363	 1.10971	           -8665	         8206.61	        -458.397
     292	 1.98797	   1.127	        -8641.27	          8183.3	         -457.97
     293	 1.98354	 1.14019	        -8622.55	         8165.06	        -457.483
     294	 1.98204	 1.14398	        -8616.32	         8158.88	        -457.434
     295	 1.98374	 1.13751	        -8623.66	         8165.89	        -457.771
     296	 1.98759	   1.124	        -8639.77	         8181.74	        -458.028
     297	  1.9925	 1.10668	        -8660.07	         8201.93	        -458.137
     298	 1.99774	 1.08767	         -8681.8	         8223.52	        -458.286
     299	 2.00259	 1.06928	        -8701.97	         8243.46	        -458.507
     300	 2.00617	 1.05427	        -8716.89	         8258.22	        -458.677
     301	 2.00785	 1.04472	        -8723.84	         8265.11	        -458.733
     302	  2.0074	 1.04129	           -8722	         8263.29	        -458.711
     303	 2.00506	 1.04343	        -8712.25	         8253.64	        -458.604
     304	 2.00148	  1.0493	        -8697.24	         8238.89	        -458.346
     305	 1.99781	 1.05553	        -8681.85	         8223.82	         -458.03
     306	 1.99531	 1.05842	        -8671.43	         8213.52	        -457.903
     307	 1.99447	 1.05647	         -8668.1	         8210.03	        -458.065
     308	 1.99478	 1.05117	        -8669.56	         8211.33	         -458.24
     309	 1.99559	 1.04451	        -8672.85	         8214.65	        -458.203
     310	 1.99678	 1.03676	        -8677.62	         8219.55	        -458.077
     311	 1.99859	 1.02724	           -8685	            8227	        -458.003
     312	 2.00112	  1.0157	         -8695.5	         8237.44	        -458.066
     313	 2.00404	 1.00323	        -8707.72	         8249.42	        -458.291
     314	 2.00649	0.992329	        -8718.09	         8259.54	        -458.549
     315	 2.00761	0.985672	        -8722.78	         8264.13	        -458.645
     316	 2.00704	0.984268	        -8720.33	          8261.8	        -458.527
     317	 2.00518	 0.98695	        -8712.42	         8254.13	        -458.287
     318	 2.00286	0.991233	        -8702.63	          8244.6	        -458.029
     319	   2.001	0.994448	        -8694.78	         8236.94	        -457.839
     320	 2.00022	0.994735	        -8691.55	         8233.74	        -457.811
     321	 2.00055	0.991972	        -8693.09	          8235.1	        -457.995
     322	 2.00131	 0.98815	        -8696.53	         8238.22	        -458.311
     323	 2.00145	0.986385	        -8697.32	          8238.8	        -458.521
     324	 2.00037	0.988552	        -8692.73	         8234.34	        -458.396
     325	 1.99854	0.993283	        -8684.87	         8226.81	        -458.058
     326	   1.997	0.997379	        -8678.48	         8220.49	        -457.996
     327	 1.99601	 1.00011	        -8674.63	         8216.39	        -458.243
     328	 1.99488	 1.00356	        -8670.13	         8211.76	        -458.377
     329	 1.99318	 1.00897	        -8663.01	         8204.74	        -458.265
     330	  1.9912	 1.01526	        -8654.69	         8196.59	        -458.094
     331	 1.98952	 1.02059	        -8647.72	          8189.7	        -458.024
     332	 1.98854	 1.02382	        -8643.63	         8185.64	         -457.99
     333	 1.98852	 1.02417	        -8643.47	         8185.57	        -457.898
     334	  1.9898	 1.02069	        -8648.73	         8190.85	        -457.882
     335	 1.99236	 1.01348	        -8659.44	         8201.36	        -458.073
     336	 1.99547	 1.00481	        -8672.53	         8214.16	        -458.366
     337	 1.99802	0.998051	        -8683.28	         8224.66	         -458.62
     338	 1.99904	0.996134	         -8687.6	         8228.86	        -458.734
     339	  1.9981	 1.00033	        -8683.67	         8224.99	        -458.679
     340	 1.99543	 1.00993	        -8672.51	            8214	        -458.509
     341	 1.99174	 1.02273	        -8657.14	         8198.81	        -458.324
     342	 1.98784	  1.0362	        -8640.99	         8182.75	        -458.235
     343	 1.98428	 1.04861	        -8626.32	          8168.1	        -458.222
     344	 1.98136	 1.05904	        -8614.28	         8156.08	        -458.195
     345	 1.97926	 1.06681	        -8605.71	         8147.47	        -458.239
     346	 1.97786	 1.07226	        -8600.12	          8141.7	        -458.425
     347	 1.97659	 1.07711	           -8595	         8136.44	        -458.552
     348	 1.97506	  1.0826	        -8588.52	         8130.16	        -458.365
     349	 1.97381	 1.08722	        -8582.99	            8125	        -457.984
     350	 1.97388	 1.08783	        -8583.11	          8125.3	        -457.807
     351	 1.97571	 1.08321	         -8590.8	         8132.84	        -457.965
     352	 1.97867	 1.07529	        -8603.28	         8145.03	         -458.25
     353	 1.98164	 1.06741	        -8615.74	         8157.25	        -458.487
     354	 1.98362	 1.06246	        -8624.04	         8165.39	        -458.645
     355	 1.98396	  1.0623	        -8625.48	         8166.79	        -458.684
     356	 1.98257	 1.06722	         -8619.6	         8161.07	        -458.533
     357	 1.98006	  1.0754	        -8609.02	         8150.76	        -458.262
     358	  1.9775	 1.08362	        -8598.28	         8140.22	         -458.06
     359	 1.97583	 1.08916	        -8591.27	         8133.34	        -457.933
     360	  1.9758	 1.08993	        -8590.93	         8133.23	        -457.706
     361	 1.97808	 1.08385	        -8600.37	          8142.6	         -457.77
     362	 1.98219	 1.07219	        -8617.79	          8159.5	        -458.286
     363	 1.98633	 1.06048	        -8635.14	         8176.55	        -458.591
     364	 1.98913	 1.05275	        -8646.59	         8188.06	        -458.533
     365	  1.9904	 1.04945	        -8651.65	          8193.3	        -458.353
     366	 1.99056	 1.04935	        -8652.22	         8193.97	        -458.244
     367	 1.98995	  1.0515	        -8649.71	         8191.45	        -458.255
     368	 1.98861	 1.05576	        -8644.23	         8185.95	        -458.283
     369	 1.98662	 1.06199	        -8635.92	         8177.73	        -458.182
     370	  1.9844	 1.06887	        -8626.62	         8168.59	         -458.03
     371	 1.98247	 1.07475	        -8618.72	         8160.66	        -458.057
     372	 1.98089	  1.0795	        -8612.34	         8154.17	        -458.173
     373	 1.97942	 1.08387	         -8606.3	          8148.1	          -458.2
     374	   1.978	 1.08798	        -8600.46	         8142.26	        -458.198
     375	 1.97665	  1.0917	        -8595.01	         8136.69	        -458.313
     376	 1.97506	 1.09588	        -8588.67	         8130.15	        -458.519
     377	 1.97272	 1.10204	        -8579.13	         8120.51	        -458.617
     378	 1.96952	 1.11047	        -8565.78	         8107.35	        -458.424
     379	 1.96632	 1.11867	        -8552.15	         8094.17	        -457.976
     380	 1.96469	 1.12188	        -8545.06	         8087.48	        -457.586
     381	 1.96597	 1.11622	        -8550.21	         8092.73	        -457.481
     382	 1.97043	 1.10092	        -8568.76	          8111.1	        -457.665
     383	 1.97725	  1.0785	        -8597.21	         8139.16	        -458.048
     384	 1.98489	  1.0536	        -8629.01	         8170.61	        -458.398
     385	 1.99191	 1.03063	        -8658.07	         8199.53	        -458.546
     386	 1.99752	 1.01203	        -8681.18	         8222.62	        -458.559
     387	 2.00146	0.998672	        -8697.38	         8238.82	        -458.551
     388	  2.0037	0.990767	        -8706.52	         8248.03	        -458.488
     389	 2.00449	0.987686	        -8709.59	         8251.28	        -458.308
     390	  2.0045	0.987503	        -8709.36	         8251.33	        -458.036
     391	 2.00469	0.987391	        -8709.92	         8252.12	          -457.8
     392	 2.00582	0.985033	        -8714.57	         8256.77	        -457.801
     393	 2.00784	0.980488	        -8723.15	          8265.1	        -458.056
     394	 2.00991	0.976251	        -8731.92	         8273.62	        -458.306
     395	 2.01116	0.974872	         -8737.1	         8278.77	        -458.335
     396	 2.01141	0.976865	        -8737.94	         8279.78	        -458.156
     397	 2.01114	 0.98075	        -8736.61	         8278.66	        -457.953
     398	 2.01093	 0.98476	        -8735.72	          8277.8	        -457.913
     399	 2.01089	0.988578	        -8735.67	         8277.64	        -458.037
     400	 2.01061	0.993405	        -8734.66	         8276.48	        -458.177
     401	 2.00962	 1.00059	        -8730.63	         8272.42	        -458.214
     402	 2.00781	 1.01044	         -8723.1	         8264.95	        -458.152
     403	 2.00539	 1.02223	        -8713.09	         8254.99	        -458.096
     404	 2.00264	 1.03514	        -8701.78	         8243.67	        -458.108
     405	  1.9997	 1.04875	         -8689.7	          8231.6	        -458.103
     406	 1.99682	 1.06238	        -8677.74	         8219.74	        -458.008
     407	 1.99446	 1.07461	        -8667.95	         8210.02	        -457.927
     408	 1.99304	 1.08417	        -8662.13	         8204.17	        -457.965
     409	 1.99257	 1.09099	        -8660.36	         8202.23	        -458.128
     410	 1.99258	  1.0964	        -8660.68	         8202.29	         -458.39
     411	 1.99226	 1.10275	        -8659.62	         8200.96	        -458.656
     412	 1.99078	 1.11237	        -8653.63	         8194.86	        -458.768
     413	 1.98787	 1.12596	        -8641.51	          8182.9	        -458.612
     414	 1.98417	 1.14154	        -8625.94	         8167.67	        -458.269
     415	  1.9809	 1.15535	        -8612.18	         8154.21	        -457.971
     416	 1.97915	 1.16404	        -8604.86	         8147.02	        -457.842
     417	 1.97943	 1.16608	        -8606.02	         8148.15	        -457.861
     418	 1.98164	 1.16171	        -8615.22	         8157.23	        -457.987
     419	 1.98524	 1.15249	        -8630.24	         8172.05	        -458.189
     420	 1.98942	 1.14087	        -8647.65	         8189.26	        -458.391
     421	  1.9934	 1.12931	        -8664.13	         8205.64	        -458.492
     422	 1.99668	 1.11936	        -8677.67	         8219.15	        -458.517
     423	 1.99902	 1.11181	        -8687.35	         8228.78	        -458.569
     424	 2.00015	 1.10752	        -8692.08	         8233.45	        -458.629
     425	 1.99988	 1.10718	        -8690.88	         8232.32	         -458.56
     426	 1.99845	 1.11011	        -8684.73	         8226.45	        -458.289
     427	 1.99677	 1.11368	        -8677.47	         8219.52	        -457.948
     428	 1.99593	 1.11464	        -8673.82	         8216.07	        -457.751
     429	 1.99656	 1.11122	        -8676.44	         8218.64	        -457.795
     430	 1.99843	 1.10407	        -8684.38	         8226.35	        -458.031
     431	 2.00068	 1.09584	        -8693.91	         8235.62	        -458.291
     432	 2.00236	 1.08939	        -8700.97	         8242.55	        -458.416
     433	   2.003	 1.08624	         -8703.5	         8245.14	        -458.354
     434	 2.00274	 1.08595	        -8702.28	         8244.09	        -458.188
     435	 2.00213	   1.087	        -8699.66	         8241.58	        -458.076
     436	 2.00155	 1.08827	        -8697.28	         8239.18	        -458.102
     437	 2.00094	  1.0899	        -8694.89	         8236.68	         -458.21
     438	 1.99999	  1.0928	        -8691.05	         8232.76	        -458.284
     439	 1.99851	 1.09747	        -8684.91	         8226.69	        -458.214
     440	 1.99681	 1.10299	        -8677.71	         8219.71	        -458.009
     441	 1.99562	  1.1072	         -8672.6	         8214.78	         -457.82
     442	 1.99556	  1.1082	        -8672.36	         8214.56	        -457.802
     443	  1.9967	 1.10589	         -8677.2	         8219.23	        -457.964
     444	 1.99844	 1.10206	        -8684.59	          8226.4	        -458.189
     445	 1.99992	 1.09933	        -8690.88	         8232.47	        -458.408
     446	 2.00026	 1.10022	         -8692.5	         8233.89	        -458.613
     447	 1.99874	 1.10688	        -8686.41	         8227.64	        -458.769
     448	 1.99491	 1.12058	        -8670.69	         8211.88	        -458.816
     449	  1.9888	 1.14113	        -8645.44	         8186.73	         -458.71
     450	 1.98107	 1.16649	        -8613.31	         8154.89	        -458.428
     451	 1.97298	 1.19277	        -8579.66	         8121.61	        -458.052
     452	  1.9661	 1.21521	        -8551.04	         8093.26	        -457.773
     453	 1.96155	  1.2303	        -8532.32	         8074.56	        -457.765
     454	  1.9595	 1.23744	        -8524.16	         8066.12	        -458.044
     455	 1.95909	 1.23909	        -8522.84	         8064.42	        -458.416
     456	  1.9591	 1.23879	        -8523.13	         8064.48	        -458.652
     457	 1.95879	 1.23876	        -8521.81	          8063.2	        -458.615
     458	 1.95835	 1.23847	        -8519.73	         8061.38	        -458.349
     459	 1.95862	 1.23537	        -8520.73	         8062.51	         -458.22
     460	 1.95999	 1.22828	        -8526.53	         8068.14	        -458.392
     461	 1.96197	 1.21877	        -8534.74	         8076.27	        -458.472
     462	  1.9642	 1.20792	        -8543.75	         8085.48	        -458.279
     463	 1.96709	 1.19446	        -8555.43	         8097.37	        -458.061
     464	 1.97113	 1.17695	        -8572.05	         8113.97	        -458.074
     465	  1.9761	 1.15606	        -8592.73	         8134.44	        -458.286
     466	 1.98118	  1.1344	         -8613.8	         8155.34	        -458.461
     467	 1.98561	 1.11433	           -8632	         8173.57	        -458.434
     468	 1.98928	 1.09629	        -8646.93	         8188.69	        -458.248
     469	 1.99262	 1.07916	        -8660.52	         8202.43	        -458.091
     470	 1.99601	 1.06192	        -8674.48	         8216.39	        -458.085
     471	 1.99942	 1.04487	        -8688.58	         8230.41	        -458.169
     472	  2.0025	 1.02916	        -8701.34	          8243.1	        -458.232
     473	 2.00497	 1.01575	         -8711.5	         8253.26	        -458.241
     474	 2.00668	 1.00513	        -8718.56	         8260.32	        -458.238
     475	 2.00757	0.997552	        -8722.23	         8263.97	        -458.257
     476	 2.00754	0.993341	        -8722.11	         8263.85	        -458.261
     477	 2.00658	0.992524	        -8718.12	         8259.91	        -458.209
     478	 2.00491	0.994489	        -8711.11	         8253.01	        -458.104
     479	 2.00291	0.998007	        -8702.78	         8244.81	        -457.975
     480	 2.00107	 1.00166	        -8695.12	          8237.2	        -457.917
     481	 1.99956	 1.00475	        -8689.03	         8231.02	         -458.01
     482	 1.99812	 1.00805	         -8683.3	          8225.1	        -458.204
     483	 1.99615	 1.01323	        -8675.34	         8216.97	        -458.368
     484	 1.99314	 1.02166	           -8663	         8204.58	        -458.421
     485	 1.98901	 1.03342	        -8645.94	          8187.6	         -458.34
     486	 1.98423	 1.04706	        -8626.01	         8167.89	        -458.119
     487	 1.97977	 1.05958	        -8607.32	         8149.53	        -457.785
     488	 1.97698	 1.06695	        -8595.55	         8138.06	        -457.491
     489	 1.97692	 1.06597	        -8595.33	         8137.83	        -457.497
     490	 1.97961	 1.05661	        -8606.68	         8148.88	        -457.795
     491	   1.984	 1.04205	         -8625.1	         8166.96	        -458.147
     492	 1.98873	 1.02637	        -8644.88	         8186.45	        -458.433
     493	 1.99264	 1.01314	        -8661.15	         8202.51	        -458.644
     494	 1.99486	 1.00498	        -8670.43	         8211.66	        -458.762
     495	 1.99498	 1.00327	        -8670.92	         8212.17	        -458.758
     496	 1.99307	 1.00789	        -8662.95	         8204.31	        -458.639
     497	 1.98968	 1.01731	        -8648.74	         8190.34	        -458.406
     498	 1.98573	 1.02881	        -8632.23	         8174.08	        -458.154
     499	 1.98214	 1.03958	        -8617.38	         8159.31	        -458.072
     500	 1.97929	 1.04845	        -8605.72	         8147.58	        -458.148
     501	 1.97704	 1.05576	        -8596.52	          8138.3	        -458.225
     502	  1.9752	 1.06199	        -8588.92	         8130.74	        -458.174
     503	 1.97402	 1.06643	        -8583.84	         8125.87	        -457.967
     504	 1.97413	 1.06713	        -8584.15	         8126.35	        -457.804
     505	 1.97595	  1.0628	        -8591.76	         8133.82	        -457.948
     506	 1.97889	 1.05513	        -8604.24	         8145.94	          -458.3
     507	 1.98172	 1.04786	        -8616.11	         8157.56	        -458.555
     508	 1.98341	 1.04396	        -8623.09	         8164.51	        -458.577
     509	 1.98373	 1.04409	        -8624.25	         8165.84	        -458.412
     510	 1.98312	 1.04696	        -8621.55	         8163.35	        -458.204
     511	 1.98222	 1.05069	        -8617.76	         8159.64	        -458.122
     512	  1.9813	 1.05445	        -8614.08	         8155.86	        -458.217
     513	 1.98013	 1.05889	         -8609.4	         8151.02	        -458.375
     514	 1.97834	 1.06505	        -8602.03	         8143.66	        -458.369
     515	 1.97622	 1.07218	        -8592.94	         8134.93	        -458.007
     516	   1.975	 1.07648	        -8587.64	         8129.92	        -457.722
     517	 1.97553	 1.07527	        -8590.02	         8132.09	        -457.928
     518	 1.97733	 1.07018	        -8597.55	         8139.51	        -458.037
     519	 1.97994	 1.06263	        -8608.15	         8150.25	        -457.901
     520	 1.98352	 1.05204	        -8622.85	            8165	        -457.852
     521	 1.98808	 1.03853	        -8641.77	         8183.77	        -457.999
     522	 1.99305	 1.02398	        -8662.44	         8204.23	        -458.216
     523	 1.99759	 1.01105	        -8681.34	          8222.9	        -458.433
     524	 2.00087	 1.00229	        -8695.02	         8236.41	        -458.608
     525	 2.00231	0.999555	        -8700.99	         8242.33	        -458.659
     526	 2.00179	 1.00326	        -8698.75	         8240.18	        -458.569
     527	 1.99973	 1.01221	        -8690.05	         8231.69	        -458.359
     528	 1.99694	 1.02399	        -8678.38	         8220.24	        -458.141
     529	 1.99421	 1.03618	        -8667.13	            8209	        -458.135
     530	 1.99169	 1.04825	        -8656.86	         8198.62	        -458.244
     531	 1.98922	 1.06069	         -8646.6	         8188.45	        -458.158
     532	 1.98711	 1.07246	        -8637.71	         8179.75	        -457.959
     533	  1.9859	 1.08171	        -8632.77	         8174.79	        -457.981
     534	 1.98554	 1.08854	        -8631.52	         8173.31	        -458.206
     535	 1.98532	   1.095	        -8630.79	         8172.37	        -458.418
     536	 1.98449	  1.1031	        -8627.52	            8169	        -458.526
     537	 1.98274	 1.11375	        -8620.28	         8161.77	        -458.507
     538	 1.98014	 1.12659	        -8609.52	         8151.07	        -458.448
     539	 1.97694	 1.14082	        -8596.34	         8137.89	        -458.447
     540	  1.9733	 1.15593	        -8581.33	         8122.93	        -458.398
     541	 1.96961	 1.17086	         -8565.9	         8107.72	        -458.177
     542	 1.96674	 1.18297	        -8553.81	         8095.93	        -457.877
     543	 1.96572	 1.18921	        -8549.55	         8091.72	        -457.834
     544	 1.96664	 1.18917	        -8553.69	          8095.5	        -458.182
     545	 1.96838	 1.18623	         -8561.2	         8102.65	        -458.551
     546	 1.96963	 1.18421	        -8566.41	         8107.81	        -458.606
     547	 1.97004	 1.18407	        -8567.85	         8109.48	        -458.365
     548	 1.97023	 1.18386	        -8568.36	         8110.29	        -458.063
     549	  1.9711	  1.1809	        -8571.83	         8113.88	        -457.952
     550	 1.97299	 1.17417	        -8579.71	         8121.65	        -458.059
     551	 1.97558	  1.1647	        -8590.51	         8132.29	        -458.218
     552	 1.97834	 1.15408	        -8601.95	         8143.64	        -458.301
     553	 1.98099	 1.14318	        -8612.85	         8154.56	        -458.291
     554	 1.98361	 1.13191	        -8623.56	         8165.37	        -458.185
     555	 1.98662	 1.11925	         -8635.8	         8177.74	        -458.055
     556	 1.99032	 1.10429	        -8651.16	         8192.97	        -458.189
     557	 1.99419	 1.08868	        -8667.39	          8208.9	        -458.484
     558	 1.99723	  1.0756	        -8679.93	         8221.43	          -458.5
     559	 1.99916	 1.06589	         -8687.6	         8229.35	        -458.258
     560	 2.00051	 1.05793	        -8692.91	          8234.9	        -458.015
     561	 2.00191	 1.04988	        -8698.62	         8240.68	        -457.935
     562	 2.00353	 1.04134	        -8705.33	         8247.33	        -457.995
     563	 2.00507	  1.0332	        -8711.75	         8253.69	        -458.056
     564	 2.00626	 1.02638	         -8716.6	         8258.56	        -458.034
     565	 2.00704	 1.02102	        -8719.77	          8261.8	         -457.97
     566	 2.00756	 1.01677	        -8721.88	         8263.94	        -457.947
     567	 2.00784	 1.01362	         -8723.1	         8265.09	        -458.009
     568	 2.00766	  1.0123	        -8722.47	         8264.33	        -458.143
     569	 2.00658	  1.0141	        -8718.17	         8259.88	        -458.286
     570	 2.00419	  1.0202	        -8708.43	         8250.08	        -458.353
     571	 2.00043	 1.03078	        -8692.88	          8234.6	        -458.287
     572	  1.9957	  1.0445	        -8673.25	         8215.13	        -458.116
     573	 1.99082	 1.05887	        -8652.94	         8195.02	        -457.926
     574	 1.98667	 1.07109	        -8635.74	         8177.96	        -457.784
     575	 1.98401	 1.07894	        -8624.67	         8166.99	        -457.682
     576	 1.98332	 1.08092	        -8621.79	         8164.15	        -457.646
     577	 1.98471	 1.07666	        -8627.67	          8169.9	        -457.775
     578	 1.98769	 1.06768	        -8640.19	         8182.15	        -458.035
     579	 1.99127	 1.05694	        -8655.15	         8196.87	        -458.274
     580	 1.99448	 1.04738	         -8668.5	         8210.09	        -458.407
     581	 1.99668	 1.04088	        -8677.63	         8219.16	        -458.471
     582	 1.99751	 1.03854	         -8681.1	         8222.59	        -458.518
     583	 1.99679	 1.04095	        -8678.08	         8219.61	        -458.473
     584	 1.99474	 1.04747	         -8669.4	         8211.17	        -458.225
     585	 1.99227	 1.05543	        -8658.86	         8200.99	        -457.867
     586	 1.99058	 1.06119	        -8651.74	         8194.03	        -457.708
     587	 1.99024	 1.06297	        -8650.52	         8192.63	        -457.889
     588	 1.99075	 1.06227	        -8652.94	         8194.76	        -458.185
     589	 1.99117	 1.06182	        -8654.86	         8196.49	        -458.367
     590	 1.99088	 1.06337	        -8653.64	         8195.29	        -458.346
     591	 1.98995	 1.06666	         -8649.6	         8191.44	        -458.162
     592	 1.98895	 1.06988	        -8645.35	         8187.35	        -457.998
     593	 1.98845	 1.07137	        -8643.24	         8185.27	        -457.971
     594	 1.98858	 1.07077	        -8643.81	         8185.82	        -457.987
     595	 1.98932	 1.06828	         -8646.8	         8188.85	        -457.949
     596	 1.99068	 1.06388	        -8652.39	         8194.46	        -457.929
     597	  1.9926	 1.05788	        -8660.38	         8202.37	        -458.015
     598	 1.99469	 1.05158	        -8669.12	         8210.95	        -458.173
     599	 1.99631	 1.04695	        -8675.97	         8217.64	        -458.335
     600	 1.99688	 1.04584	        -8678.42	         8219.99	        -458.429
     601	 1.99609	  1.0492	        -8675.14	         8216.73	        -458.406
     602	 1.99406	 1.05668	        -8666.68	         8208.38	        -458.301
     603	 1.99121	 1.06699	        -8654.84	         8196.62	        -458.222
     604	 1.98789	 1.07896	        -8641.17	         8182.96	        -458.203
     605	 1.98432	 1.09189	        -8626.44	         8168.26	        -458.171
     606	 1.98071	 1.10502	        -8611.52	          8153.4	        -458.115
     607	 1.97733	 1.11738	        -8597.59	          8139.5	        -458.089
     608	 1.97441	 1.12819	        -8585.56	         8127.48	        -458.077
     609	 1.97213	 1.13683	        -8576.14	          8118.1	        -458.042
     610	  1.9707	 1.14264	        -8570.25	         8112.23	        -458.016
     611	 1.97024	 1.14521	        -8568.39	         8110.33	        -458.058
     612	  1.9706	 1.14497	        -8569.96	          8111.8	        -458.159
     613	 1.97141	 1.14296	        -8573.39	         8115.16	         -458.23
     614	 1.97241	 1.13999	         -8577.5	         8119.27	         -458.23
     615	 1.97356	 1.13614	        -8582.18	         8123.97	         -458.21
     616	 1.97504	 1.13089	        -8588.16	         8130.08	        -458.077
     617	 1.97752	 1.12251	         -8598.1	         8140.28	        -457.819
     618	 1.98171	  1.1087	         -8615.5	         8157.53	        -457.972
     619	 1.98712	 1.09109	        -8638.14	         8179.82	         -458.32
     620	 1.99255	  1.0735	        -8660.56	         8202.16	        -458.398
     621	 1.99737	 1.05774	        -8680.35	         8222.01	        -458.343
     622	 2.00152	 1.04413	        -8697.35	         8239.07	        -458.274
     623	 2.00502	 1.03272	        -8711.77	         8253.48	        -458.297
     624	 2.00763	  1.0243	         -8722.7	         8264.22	         -458.48
     625	 2.00868	  1.0209	        -8727.23	         8268.53	        -458.703
     626	 2.00745	 1.02467	        -8722.26	          8263.5	        -458.764
     627	 2.00383	 1.03592	         -8707.2	          8248.6	        -458.602
     628	 1.99847	 1.05263	        -8684.84	          8226.5	        -458.343
     629	  1.9924	 1.07152	        -8659.67	         8201.52	        -458.144
     630	 1.98658	 1.08963	        -8635.59	         8177.56	        -458.024
     631	 1.98174	 1.10465	        -8615.54	         8157.65	        -457.888
     632	 1.97858	 1.11437	        -8602.41	         8144.67	        -457.742
     633	 1.97771	 1.11684	        -8598.76	         8141.05	        -457.709
     634	 1.97923	 1.11164	        -8605.16	         8147.33	         -457.83
     635	 1.98269	 1.10021	        -8619.57	         8161.55	        -458.016
     636	 1.98726	 1.08505	        -8638.57	         8180.37	        -458.201
     637	 1.99203	 1.06896	        -8658.42	         8200.03	        -458.393
     638	 1.99609	 1.05479	        -8675.28	         8216.72	        -458.561
     639	 1.99864	 1.04499	        -8685.88	         8227.22	        -458.659
     640	 1.99921	 1.04104	        -8688.23	         8229.54	        -458.686
     641	 1.99769	 1.04326	        -8681.92	         8223.31	        -458.616
     642	 1.99447	 1.05058	        -8668.46	         8210.06	        -458.401
     643	 1.99045	 1.06029	        -8651.64	          8193.5	        -458.135
     644	  1.9867	 1.06912	        -8636.03	         8178.07	        -457.956
     645	 1.98407	 1.07454	        -8625.07	         8167.25	        -457.822
     646	 1.98314	 1.07478	        -8621.19	         8163.42	        -457.762
     647	 1.98407	 1.06924	        -8625.15	         8167.24	        -457.915
     648	 1.98631	 1.05953	        -8634.61	         8176.45	        -458.156
     649	 1.98899	  1.0483	        -8645.77	         8187.52	        -458.253
     650	 1.99166	   1.037	        -8656.66	          8198.5	        -458.163
     651	 1.99441	  1.0254	        -8667.85	         8209.81	        -458.035
     652	  1.9975	 1.01286	        -8680.51	         8222.51	        -457.999
     653	 2.00093	0.999482	        -8694.69	         8236.66	        -458.024
     654	 2.00458	0.985867	        -8709.67	         8251.66	        -458.016
     655	 2.00831	0.972416	        -8725.09	         8267.04	        -458.047
     656	 2.01188	0.959924	        -8739.94	         8281.71	        -458.225
     657	 2.01467	0.950294	        -8751.54	         8293.18	        -458.361
     658	 2.01626	0.944855	        -8757.99	         8299.74	        -458.248
     659	 2.01702	0.942586	        -8760.86	         8302.87	        -457.995
     660	 2.01769	 0.94118	        -8763.58	         8305.64	        -457.944
     661	 2.01844	0.940136	        -8766.91	         8308.72	        -458.192
     662	 2.01858	0.941565	        -8767.71	          8309.3	        -458.403
     663	 2.01751	0.947273	        -8763.24	         8304.88	        -458.364
     664	 2.01531	0.956815	         -8754.1	         8295.84	        -458.261
     665	 2.01236	0.968972	        -8741.95	          8283.7	        -458.245
     666	 2.00888	0.983062	        -8727.54	         8269.35	        -458.192
     667	 2.00516	0.998055	         -8712.1	         8254.04	        -458.062
     668	 2.00173	 1.01223	        -8697.88	         8239.94	         -457.94
     669	  1.9991	 1.02399	           -8687	          8229.1	          -457.9
     670	 1.99743	 1.03269	        -8680.21	         8222.24	        -457.974
     671	 1.99649	 1.03896	        -8676.46	         8218.38	        -458.076
     672	 1.99591	  1.0439	        -8674.09	         8215.99	          -458.1
     673	 1.99548	 1.04806	        -8672.29	         8214.22	         -458.07
     674	 1.99518	 1.05157	        -8671.02	         8212.97	        -458.053
     675	 1.99496	 1.05457	        -8670.17	         8212.07	        -458.093
     676	 1.99465	 1.05769	        -8668.94	         8210.78	        -458.159
     677	 1.99404	 1.06163	        -8666.41	         8208.27	        -458.145
     678	 1.99319	 1.06627	        -8662.82	         8204.79	        -458.027
     679	 1.99246	 1.07054	        -8659.74	         8201.79	        -457.956
     680	 1.99205	 1.07379	        -8658.16	          8200.1	        -458.067
     681	 1.99165	 1.07689	         -8656.7	         8198.43	        -458.263
     682	 1.99073	 1.08133	        -8652.98	         8194.67	        -458.309
     683	 1.98924	 1.08721	         -8646.7	         8188.52	        -458.175
     684	 1.98764	 1.09297	        -8639.98	         8181.93	        -458.046
     685	 1.98645	 1.09701	        -8635.01	         8177.06	        -457.952
     686	 1.98611	 1.09812	        -8633.48	         8175.66	        -457.823
     687	 1.98704	 1.09503	        -8637.23	         8179.49	        -457.744
     688	 1.98945	 1.08719	        -8647.21	         8189.37	        -457.835
     689	 1.99296	 1.07575	        -8661.89	         8203.83	        -458.061
     690	 1.99677	 1.06327	        -8677.82	         8219.53	        -458.296
     691	 2.00002	 1.05243	        -8691.37	          8232.9	        -458.475
     692	 2.00202	  1.0453	        -8699.74	         8241.11	        -458.631
     693	 2.00222	 1.04351	        -8700.71	         8241.97	        -458.742
     694	  2.0004	 1.04785	        -8693.11	         8234.46	        -458.648
     695	 1.99699	 1.05698	        -8678.78	         8220.43	         -458.35
     696	 1.99307	 1.06762	        -8662.36	         8204.28	        -458.082
     697	 1.98966	 1.07668	        -8648.22	         8190.27	        -457.953
     698	 1.98737	 1.08244	        -8638.72	         8180.82	        -457.896
     699	 1.98643	 1.08419	        -8634.84	         8176.96	        -457.873
     700	 1.98691	  1.0818	        -8636.81	         8178.95	        -457.864
     701	  1.9887	 1.07562	        -8644.26	         8186.31	         -457.95
     702	 1.99133	 1.06708	        -8655.27	         8197.13	         -458.14
     703	   1.994	 1.05859	        -8666.44	         8208.12	         -458.32
     704	  1.9959	 1.05251	        -8674.41	         8215.94	        -458.473
     705	 1.99638	 1.05068	        -8676.48	         8217.93	         -458.55
     706	 1.99517	 1.05387	         -8671.4	         8212.94	        -458.466
     707	 1.99259	 1.06098	        -8660.56	         8202.32	        -458.232
     708	 1.98955	 1.06928	        -8647.74	         8189.81	        -457.932
     709	  1.9872	 1.07528	        -8637.84	         8180.15	        -457.694
     710	 1.98644	 1.07628	         -8634.7	         8177.01	        -457.689
     711	 1.98736	 1.07202	        -8638.68	         8180.79	        -457.897
     712	 1.98931	 1.06449	        -8646.93	          8188.8	         -458.13
     713	 1.99143	 1.05625	        -8655.87	         8197.55	        -458.322
     714	 1.99302	 1.04943	        -8662.54	          8204.1	        -458.449
     715	 1.99368	 1.04535	        -8665.22	         8206.81	        -458.409
     716	 1.99361	 1.04356	        -8664.72	         8206.52	          -458.2
     717	 1.99349	 1.04207	         -8664.1	         8206.04	        -458.062
     718	 1.99378	  1.0396	        -8665.37	         8207.21	        -458.164
     719	 1.99418	 1.03703	        -8667.23	         8208.85	        -458.381
     720	 1.99404	 1.03634	        -8666.76	         8208.28	        -458.477
     721	 1.99312	 1.03825	        -8662.81	         8204.51	        -458.299
     722	 1.99209	 1.04084	        -8658.17	         8200.25	        -457.924
     723	 1.99216	 1.04045	         -8658.2	         8200.53	        -457.669
     724	 1.99413	 1.03473	         -8666.4	         8208.67	         -457.73
     725	 1.99777	  1.0245	        -8681.62	         8223.63	        -457.989
     726	 2.00204	  1.0128	        -8699.49	         8241.23	        -458.263
     727	 2.00582	 1.00303	        -8715.22	         8256.78	         -458.44
     728	  2.0083	0.997592	        -8725.46	         8266.97	        -458.491
     729	 2.00915	0.997448	        -8728.92	         8270.48	        -458.444
     730	 2.00848	 1.00233	        -8726.06	         8267.73	         -458.33
     731	 2.00669	 1.01106	        -8718.54	         8260.36	        -458.184
     732	 2.00431	 1.02202	        -8708.63	         8250.57	        -458.063
     733	 2.00181	 1.03375	         -8698.3	         8240.28	        -458.015
     734	 1.99943	 1.04547	         -8688.5	         8230.47	        -458.032
     735	 1.99719	   1.057	         -8679.3	         8221.24	        -458.065
     736	 1.99503	 1.06843	        -8670.47	         8212.37	        -458.103
     737	 1.99285	 1.07997	        -8661.59	         8203.39	        -458.205
     738	 1.99032	 1.09246	        -8651.38	         8192.99	        -458.391
     739	 1.98693	 1.10735	        -8637.56	         8179.02	         -458.54
     740	 1.98233	 1.12556	         -8618.6	         8160.09	        -458.512
     741	 1.97679	  1.1462	        -8595.58	         8137.28	        -458.295
     742	 1.97119	 1.16656	        -8572.26	         8114.23	        -458.029
     743	 1.96655	 1.18349	        -8553.01	         8095.12	         -457.89
     744	 1.96346	 1.19515	        -8540.31	         8082.43	        -457.877
     745	 1.96208	  1.2011	        -8534.62	         8076.74	        -457.881
     746	 1.96236	  1.2014	        -8535.77	         8077.89	        -457.882
     747	  1.9642	 1.19631	        -8543.41	         8085.48	        -457.933
     748	 1.96733	  1.1867	         -8556.4	         8098.36	        -458.045
     749	 1.97128	 1.17403	        -8572.76	         8114.59	        -458.163
     750	 1.97552	 1.15991	        -8590.35	         8132.07	        -458.283
     751	 1.97954	 1.14597	        -8607.05	         8148.59	        -458.453
     752	 1.98269	 1.13414	        -8620.23	         8161.59	        -458.642
     753	 1.98442	  1.1262	         -8627.4	         8168.69	        -458.712
     754	 1.98465	  1.1225	        -8628.17	         8169.65	        -458.521
     755	 1.98422	 1.12073	        -8625.98	         8167.86	        -458.122
     756	 1.98447	 1.11691	        -8626.79	         8168.88	        -457.906
     757	 1.98604	 1.10913	        -8633.49	         8175.38	        -458.113
     758	 1.98824	 1.09964	        -8642.82	          8184.4	         -458.42
     759	 1.98986	   1.092	        -8649.61	         8191.09	        -458.517
     760	 1.99033	 1.08786	        -8651.42	         8193.01	        -458.405
     761	 1.98984	  1.0866	        -8649.18	         8191.02	        -458.167
     762	 1.98915	 1.08604	        -8646.05	         8188.16	        -457.892
     763	 1.98913	 1.08357	        -8645.81	         8188.08	        -457.729
     764	 1.99029	  1.0777	        -8650.65	         8192.86	        -457.794
     765	 1.99239	 1.06918	        -8659.52	         8201.51	        -458.006
     766	 1.99471	 1.06025	        -8669.21	         8211.03	        -458.178
     767	 1.99655	 1.05296	        -8676.87	          8218.6	        -458.264
     768	 1.99748	 1.04858	         -8680.8	         8222.46	        -458.338
     769	 1.99721	 1.04801	        -8679.73	         8221.33	        -458.404
     770	 1.99556	 1.05176	        -8672.88	         8214.54	        -458.342
     771	 1.99287	  1.0589	        -8661.53	         8203.46	        -458.078
     772	 1.99006	 1.06658	         -8649.7	          8191.9	        -457.799
     773	  1.9881	  1.0719	        -8641.52	         8183.82	        -457.705
     774	 1.98739	 1.07365	        -8638.59	         8180.89	        -457.701
     775	 1.98795	 1.07173	        -8640.95	         8183.24	        -457.709
     776	  1.9897	 1.06642	        -8648.18	         8190.41	        -457.775
     777	 1.99233	 1.05856	        -8659.14	         8201.26	        -457.883
     778	 1.99544	 1.04948	        -8672.04	         8214.04	        -458.004
     779	 1.99848	 1.04077	        -8684.74	         8226.57	        -458.177
     780	 2.00077	 1.03448	        -8694.36	         8235.99	        -458.377
     781	 2.00159	 1.03275	        -8697.82	         8239.38	        -458.448
     782	 2.00069	  1.0363	        -8693.98	         8235.66	         -458.32
     783	 1.99852	 1.04376	        -8684.76	          8226.7	        -458.056
     784	 1.99604	 1.05215	         -8674.3	         8216.53	        -457.771
     785	 1.99436	 1.05823	        -8667.19	         8209.59	        -457.598
     786	 1.99417	 1.05982	        -8666.45	         8208.84	        -457.614
     787	 1.99558	 1.05667	        -8672.36	         8214.61	        -457.752
     788	  1.9982	 1.04989	        -8683.32	         8225.41	        -457.901
     789	 2.00153	 1.04104	        -8697.17	          8239.1	        -458.073
     790	 2.00488	 1.03212	        -8711.22	         8252.88	        -458.334
     791	 2.00729	 1.02597	        -8721.46	         8262.84	        -458.623
     792	 2.00782	 1.02549	        -8723.73	            8265	        -458.727
     793	 2.00616	 1.03156	         -8716.7	         8258.19	        -458.509
     794	  2.0031	 1.04184	        -8703.71	         8245.59	        -458.117
     795	       2	  1.0522	        -8690.64	         8232.81	        -457.834
     796	 1.99792	 1.05942	           -8682	         8224.24	        -457.759
     797	 1.99724	 1.06238	        -8679.27	         8221.47	        -457.796
     798	 1.99788	 1.06131	        -8681.99	          8224.1	        -457.886
     799	 1.99944	 1.05731	        -8688.59	         8230.53	        -458.061
     800	 2.00123	  1.0524	        -8696.21	          8237.9	        -458.308
     801	 2.00237	  1.0492	        -8701.09	         8242.57	         -458.52
     802	 2.00216	 1.04976	        -8700.28	         8241.71	         -458.57
     803	 2.00061	 1.05415	        -8693.65	         8235.34	        -458.316
     804	 1.99887	 1.05918	         -8685.9	         8228.15	        -457.752
     805	  1.9988	 1.05922	        -8685.41	         8227.88	         -457.53
     806	 2.00107	 1.05227	        -8695.21	         8237.22	        -457.991
     807	 2.00428	 1.04279	        -8708.83	         8250.42	         -458.41
     808	 2.00677	 1.03563	        -8719.24	         8260.69	        -458.551
     809	 2.00775	  1.0331	        -8723.27	         8264.72	        -458.551
     810	 2.00706	 1.03568	        -8720.35	         8261.89	        -458.462
     811	 2.00495	 1.04266	        -8711.54	         8253.19	        -458.353
     812	  2.0018	 1.05283	        -8698.48	          8240.2	        -458.275
     813	 1.99798	 1.06499	        -8682.68	         8224.52	        -458.163
     814	 1.99406	 1.07744	        -8666.33	         8208.38	        -457.953
     815	 1.99086	 1.08759	        -8652.96	         8195.21	        -457.742
     816	 1.98917	 1.09297	        -8645.97	         8188.23	        -457.744
     817	 1.98905	 1.09324	        -8645.74	         8187.75	        -457.997
     818	 1.98983	 1.09045	        -8649.18	         8190.94	        -458.234
     819	 1.99085	 1.08661	        -8653.33	         8195.15	         -458.18
     820	 1.99226	 1.08134	        -8658.93	         8200.96	        -457.976
     821	 1.99454	 1.07317	        -8668.38	         8210.34	        -458.036
     822	 1.99741	 1.06306	        -8680.48	         8222.15	        -458.333
     823	 1.99985	 1.05418	        -8690.76	          8232.2	        -458.561
     824	 2.00102	 1.04906	        -8695.63	         8237.03	        -458.596
     825	 2.00086	 1.04803	        -8694.73	         8236.34	        -458.389
     826	 2.00015	 1.04881	         -8691.5	         8233.43	        -458.069
     827	 1.99998	 1.04821	        -8690.71	         8232.75	        -457.968
     828	  2.0008	 1.04507	        -8694.08	         8236.09	        -457.991
     829	 2.00241	 1.03996	        -8700.83	         8242.75	        -458.078
     830	 2.00427	 1.03447	         -8708.7	          8250.4	        -458.301
     831	 2.00542	  1.0314	        -8713.67	         8255.13	        -458.537
     832	 2.00492	 1.03347	        -8711.73	         8253.07	        -458.667
     833	 2.00231	 1.04197	        -8700.93	         8242.32	         -458.61
     834	  1.9979	 1.05589	         -8682.5	         8224.16	        -458.339
     835	 1.99282	  1.0718	        -8661.18	         8203.28	        -457.906
     836	 1.98872	 1.08475	        -8643.94	         8186.38	        -457.558
     837	 1.98684	 1.09086	        -8636.19	         8178.64	        -457.545
     838	 1.98731	 1.08971	        -8638.37	         8180.58	        -457.794
     839	 1.98927	 1.08379	        -8646.74	         8188.65	        -458.088
     840	 1.99161	 1.07637	        -8656.53	         8198.28	        -458.254
     841	 1.99359	 1.06959	        -8664.69	         8206.44	        -458.252
     842	 1.99506	 1.06394	        -8670.63	         8212.47	        -458.158
     843	 1.99626	 1.05876	        -8675.43	         8217.42	        -458.011
     844	  1.9977	 1.05268	        -8681.17	         8223.34	        -457.836
     845	 1.99992	 1.04415	        -8690.27	          8232.5	        -457.769
     846	 2.00309	 1.03276	        -8703.49	         8245.55	        -457.941
     847	 2.00659	  1.0204	        -8718.19	         8259.93	        -458.268
     848	 2.00927	 1.01051	        -8729.53	         8270.98	        -458.543
     849	 2.01019	 1.00597	        -8733.35	         8274.74	        -458.607
     850	 2.00909	 1.00752	        -8728.64	         8270.22	        -458.423
     851	 2.00661	  1.0133	         -8718.1	            8260	        -458.093
     852	 2.00388	 1.01996	        -8706.57	         8248.77	        -457.803
     853	 2.00193	 1.02444	        -8698.44	         8240.77	        -457.671
     854	 2.00127	 1.02532	        -8695.75	         8238.04	        -457.711
     855	 2.00176	 1.02296	        -8697.94	         8240.06	        -457.885
     856	 2.00281	 1.01912	        -8702.47	         8244.38	        -458.092
     857	 2.00375	 1.01582	        -8706.43	         8248.26	         -458.17
     858	 2.00437	 1.01377	        -8708.84	         8250.79	         -458.05
     859	 2.00502	 1.01189	         -8711.4	         8253.49	        -457.911
     860	 2.00613	 1.00896	        -8716.01	         8258.04	        -457.975
     861	 2.00746	 1.00567	        -8721.75	         8263.52	        -458.226
     862	 2.00819	 1.00451	        -8724.98	         8266.53	        -458.452
     863	 2.00755	 1.00774	        -8722.37	         8263.89	        -458.481
     864	  2.0054	  1.0157	        -8713.36	         8255.02	        -458.339
     865	 2.00218	 1.02691	        -8699.99	          8241.8	        -458.187
     866	  1.9985	 1.03951	        -8684.74	         8226.63	        -458.114
     867	 1.99475	 1.05217	        -8669.32	         8211.22	        -458.097
     868	 1.99123	 1.06394	        -8654.78	         8196.72	        -458.061
     869	 1.98829	 1.07368	        -8642.56	         8184.61	        -457.952
     870	 1.98645	 1.07975	        -8634.89	         8177.03	        -457.868
     871	 1.98604	 1.08103	        -8633.34	         8175.35	        -457.986
     872	 1.98672	  1.0785	        -8636.42	         8178.17	        -458.252
     873	  1.9877	 1.07459	        -8640.56	         8182.19	        -458.373
     874	 1.98855	 1.07058	        -8643.93	         8185.69	        -458.245
     875	 1.98962	 1.06546	        -8648.13	         8190.11	        -458.026
     876	 1.99164	 1.05719	        -8656.28	         8198.41	        -457.879
     877	 1.99506	 1.04447	        -8670.43	         8212.46	        -457.967
     878	 1.99956	 1.02835	        -8689.23	            8231	        -458.237
     879	 2.00425	 1.01168	        -8708.71	         8250.29	        -458.421
     880	 2.00825	 0.99704	        -8725.37	         8266.79	        -458.581
     881	  2.0109	0.986616	        -8736.25	         8277.66	        -458.585
     882	 2.01201	0.981032	        -8740.66	         8282.26	        -458.393
     883	 2.01205	0.978993	        -8740.67	          8282.4	        -458.275
     884	 2.01134	0.979507	        -8737.82	          8279.5	        -458.324
     885	 2.00988	0.982741	        -8731.83	         8273.48	        -458.352
     886	 2.00775	0.988486	        -8722.91	          8264.7	         -458.21
     887	 2.00557	0.994874	        -8713.73	         8255.76	        -457.963
     888	 2.00431	 0.99909	        -8708.34	         8250.54	        -457.799
     889	 2.00456	0.999264	        -8709.45	         8251.59	        -457.856
     890	 2.00618	0.995869	        -8716.37	         8258.26	         -458.11
     891	 2.00826	0.991544	        -8725.25	         8266.82	        -458.424
     892	 2.00964	0.989696	        -8731.13	         8272.49	        -458.642
     893	 2.00944	0.992844	        -8730.35	         8271.66	         -458.69
     894	  2.0074	 1.00169	        -8721.81	         8263.26	        -458.557
     895	 2.00397	 1.01486	         -8707.4	         8249.17	        -458.231
     896	 2.00032	 1.02893	        -8691.96	         8234.14	        -457.818
     897	 1.99781	 1.03973	        -8681.42	          8223.8	        -457.621
     898	 1.99708	 1.04525	        -8678.58	         8220.78	          -457.8
     899	 1.99756	  1.0471	         -8680.9	         8222.77	        -458.127
     900	 1.99817	 1.04847	        -8683.59	         8225.29	        -458.293
     901	 1.99827	 1.05116	        -8683.94	          8225.7	        -458.237
     902	 1.99793	 1.05487	        -8682.42	         8224.29	        -458.134
     903	 1.99744	 1.05867	         -8680.4	         8222.27	        -458.125
     904	 1.99692	 1.06229	        -8678.28	         8220.15	        -458.131
     905	 1.99645	 1.06561	        -8676.26	         8218.18	        -458.076
     906	 1.99614	 1.06819	        -8675.04	         8216.93	        -458.109
     907	  1.9958	 1.07056	        -8673.87	         8215.55	        -458.325
     908	 1.99475	 1.07479	        -8669.68	         8211.21	        -458.468
     909	 1.99253	 1.08217	        -8660.42	         8202.07	        -458.348
     910	 1.98954	 1.09145	        -8647.82	         8189.77	        -458.056
     911	 1.98681	 1.09951	         -8636.3	         8178.52	        -457.785
     912	 1.98531	 1.10337	        -8630.07	         8172.37	        -457.704
     913	 1.98543	 1.10193	        -8630.64	         8172.84	          -457.8
     914	 1.98692	  1.0959	         -8636.9	            8179	        -457.899
     915	 1.98942	 1.08641	        -8647.24	         8189.26	         -457.98
     916	  1.9925	 1.07464	        -8660.06	         8201.93	        -458.129
     917	 1.99557	  1.0624	        -8672.87	         8214.58	        -458.294
     918	 1.99805	 1.05154	        -8683.13	         8224.81	         -458.32
     919	 1.99985	  1.0425	        -8690.33	         8232.18	        -458.142
     920	 2.00148	 1.03383	         -8696.8	         8238.89	        -457.904
     921	 2.00368	 1.02348	        -8705.73	         8247.95	        -457.774
     922	 2.00684	 1.01047	        -8718.77	         8260.98	        -457.784
     923	 2.01086	0.995273	        -8735.41	          8277.5	        -457.906
     924	 2.01519	0.979582	        -8753.44	         8295.35	        -458.095
     925	 2.01909	0.965724	        -8769.69	         8311.41	        -458.281
     926	 2.02187	0.955881	         -8781.2	         8322.83	        -458.372
     927	 2.02316	0.951171	        -8786.53	         8328.15	        -458.374
     928	 2.02291	0.951739	        -8785.56	         8327.13	        -458.439
     929	 2.02098	0.957957	         -8777.7	         8319.17	         -458.53
     930	 2.01729	0.970039	        -8762.37	         8303.97	        -458.402
     931	 2.01246	0.986026	        -8742.15	         8284.11	        -458.042
     932	 2.00782	 1.00183	        -8722.75	            8265	        -457.748
     933	 2.00445	 1.01402	        -8708.87	         8251.13	        -457.747
     934	 2.00254	 1.02198	        -8701.18	         8243.27	        -457.911
     935	 2.00168	 1.02689	        -8697.75	         8239.73	        -458.022
     936	 2.00151	 1.02974	        -8697.09	         8239.03	        -458.055
     937	 2.00185	 1.03098	        -8698.55	         8240.43	        -458.119
     938	 2.00241	 1.03143	        -8701.02	         8242.74	        -458.276
     939	 2.00264	 1.03276	        -8702.11	         8243.67	         -458.44
     940	 2.00196	 1.03666	        -8699.38	         8240.87	        -458.514
     941	  2.0001	 1.04387	        -8691.72	         8233.21	         -458.51
     942	 1.99713	 1.05413	        -8679.47	         8221.02	        -458.447
     943	 1.99349	 1.06624	        -8664.27	         8206.03	        -458.243
     944	 1.99007	 1.07757	        -8649.88	         8191.93	        -457.955
     945	 1.98783	 1.08512	        -8640.65	         8182.73	        -457.923
     946	 1.98696	 1.08843	        -8637.21	         8179.13	        -458.083
     947	 1.98693	 1.08917	        -8637.14	            8179	        -458.137
     948	 1.98739	 1.08842	        -8638.99	         8180.93	        -458.068
     949	 1.98844	 1.08609	        -8643.17	         8185.22	        -457.944
     950	 1.99029	 1.08164	        -8650.79	         8192.84	        -457.947
     951	 1.99273	 1.07576	        -8661.11	          8202.9	        -458.209
     952	 1.99482	 1.07142	           -8670	         8211.49	        -458.508
     953	  1.9955	 1.07178	         -8672.9	         8214.29	        -458.607
     954	 1.99439	 1.07794	        -8668.23	         8209.73	        -458.507
     955	 1.99186	 1.08873	        -8657.63	          8199.3	        -458.332
     956	 1.98862	 1.10192	        -8644.15	         8185.99	        -458.164
     957	 1.98546	 1.11515	        -8630.97	         8172.96	        -458.006
     958	 1.98305	 1.12628	        -8620.97	         8163.06	        -457.906
     959	 1.98179	 1.13401	        -8615.85	         8157.88	        -457.965
     960	  1.9815	 1.13878	        -8614.83	         8156.66	        -458.162
     961	 1.98152	 1.14243	        -8615.06	         8156.76	        -458.306
     962	 1.98135	 1.14643	        -8614.33	         8156.06	        -458.277
     963	 1.98101	 1.15062	        -8612.79	         8154.64	        -458.153
     964	 1.98088	 1.15382	        -8612.16	         8154.12	        -458.038
     965	 1.98142	 1.15476	        -8614.29	         8156.33	         -457.96
     966	 1.98288	 1.15267	        -8620.38	         8162.34	         -458.04
     967	 1.98492	 1.14851	        -8629.13	         8170.75	        -458.382
     968	 1.98642	 1.14564	        -8635.68	         8176.94	        -458.744
     969	  1.9862	 1.14757	        -8634.88	            8176	        -458.875
     970	 1.98382	 1.15546	        -8624.98	         8166.21	         -458.77
     971	 1.97982	 1.16769	        -8608.21	         8149.74	        -458.475
     972	  1.9755	  1.1804	        -8590.03	         8131.99	        -458.036
     973	 1.97261	 1.18844	         -8577.8	          8120.1	        -457.704
     974	 1.97241	 1.18802	        -8576.94	         8119.24	        -457.699
     975	 1.97497	 1.17895	        -8587.71	         8129.78	        -457.927
     976	 1.97939	 1.16389	        -8606.27	         8148.01	        -458.266
     977	 1.98434	 1.14689	        -8626.89	         8168.37	        -458.526
     978	 1.98871	  1.1313	        -8644.92	         8186.34	        -458.581
     979	 1.99206	 1.11849	        -8658.66	         8200.13	        -458.532
     980	 1.99438	 1.10855	        -8668.19	         8209.67	        -458.514
     981	  1.9957	 1.10145	        -8673.61	         8215.13	        -458.478
     982	 1.99621	 1.09678	        -8675.56	         8217.23	        -458.327
     983	 1.99642	 1.09301	        -8676.22	          8218.1	        -458.122
     984	 1.99701	 1.08812	        -8678.48	         8220.49	        -457.984
     985	 1.99838	  1.0809	         -8684.1	         8226.13	        -457.965
     986	 2.00051	 1.07141	        -8692.93	          8234.9	        -458.023
     987	 2.00306	 1.06067	        -8703.51	         8245.41	        -458.097
     988	 2.00561	 1.04991	        -8714.05	         8255.89	        -458.163
     989	 2.00778	 1.04022	        -8723.01	         8264.82	        -458.184
     990	 2.00942	  1.0321	        -8729.71	          8271.6	        -458.116
     991	 2.01072	 1.02507	        -8734.94	         8276.95	        -457.989
     992	 2.01206	 1.01803	        -8740.37	         8282.46	        -457.908
     993	 2.01372	 1.01024	        -8747.15	         8289.27	        -457.883
     994	  2.0158	 1.00149	         -8755.7	         8297.85	         -457.85
     995	 2.01836	0.991651	        -8766.28	          8308.4	        -457.882
     996	 2.02118	 0.98141	        -8778.05	         8319.98	         -458.07
     997	 2.02356	0.972828	        -8788.08	          8329.8	        -458.287
     998	 2.02477	0.968198	        -8793.12	         8334.75	        -458.369
     999	 2.02448	0.968467	        -8791.87	         8333.56	        -458.309
