    Step 	 temperature 	 pressure 	 Potential Energy 	 Kinetic Energy 	 Sum Energy

       0	 2.18107	-1.55538	        -7516.34	         7187.92	        -328.425
       1	 2.18114	-1.55203	        -7516.61	         7188.17	         -328.44
       2	 2.18131	-1.54178	        -7517.22	         7188.74	        -328.487
       3	  2.1814	-1.52411	        -7517.61	         7189.03	        -328.573
       4	  2.1811	-1.49804	        -7516.72	         7188.02	        -328.705
       5	  2.1799	-1.46209	        -7512.98	         7184.09	        -328.894
       6	 2.17713	-1.41424	         -7504.1	         7174.95	        -329.155
       7	 2.17182	-1.35173	        -7486.96	         7157.46	        -329.504
       8	 2.16273	-1.27109	        -7457.45	          7127.5	        -329.949
       9	 2.14832	-1.16814	        -7410.46	         7079.99	        -330.469
      10	 2.12689	-1.03853	        -7340.37	         7009.39	        -330.982
      11	 2.09706	-0.878923	        -7242.39	         6911.07	        -331.317
      12	 2.05843	-0.68917	        -7115.03	         6783.76	        -331.265
      13	 2.01239	-0.474585	        -6962.84	         6632.06	        -330.779
      14	 1.96217	-0.246059	        -6796.61	         6466.54	        -330.069
      15	 1.91188	-0.0171997	        -6630.18	         6300.81	         -329.37
      16	 1.86551	0.198882	        -6476.76	            6148	         -328.76
      17	 1.82639	0.391149	        -6347.39	         6019.07	        -328.318
      18	 1.79677	0.551845	        -6249.62	         5921.46	        -328.155
      19	 1.77747	0.677748	        -6186.16	         5857.87	        -328.283
      20	 1.76788	0.770192	        -6154.87	         5826.27	        -328.601
      21	 1.76641	0.833661	        -6150.39	         5821.41	        -328.979
      22	 1.77112	0.873886	        -6166.24	         5836.95	         -329.29
      23	  1.7804	0.896012	        -6196.96	         5867.52	        -329.445
      24	 1.79317	0.903566	        -6239.19	          5909.6	        -329.587
      25	 1.80836	0.900127	        -6289.61	         5959.65	        -329.961
      26	 1.82414	0.891674	        -6342.06	         6011.66	        -330.394
      27	 1.83852	0.884666	        -6389.69	         6059.06	        -330.636
      28	 1.85034	0.882955	        -6428.66	         6098.01	        -330.654
      29	 1.85952	0.887133	        -6458.78	         6128.25	        -330.527
      30	  1.8667	0.895556	        -6482.32	         6151.93	        -330.388
      31	 1.87271	0.906062	        -6502.02	         6171.72	        -330.302
      32	 1.87817	 0.91695	        -6519.96	         6189.72	        -330.246
      33	 1.88351	0.927009	        -6537.59	         6207.34	         -330.25
      34	 1.88887	0.935877	        -6555.33	         6224.97	        -330.354
      35	 1.89394	0.944392	        -6572.17	         6241.69	        -330.482
      36	 1.89837	 0.95366	        -6586.79	         6256.28	        -330.503
      37	  1.9022	0.963538	         -6599.3	         6268.91	        -330.389
      38	 1.90602	0.972281	        -6611.75	         6281.52	        -330.228
      39	 1.91063	0.977606	        -6626.85	         6296.71	        -330.139
      40	  1.9165	0.978197	        -6646.24	         6316.05	        -330.189
      41	 1.92349	0.974586	        -6669.43	         6339.08	        -330.349
      42	 1.93094	0.968856	        -6694.16	         6363.62	        -330.546
      43	 1.93798	0.963663	        -6717.51	         6386.83	        -330.682
      44	   1.944	0.960958	        -6737.37	         6406.68	        -330.695
      45	 1.94886	0.961222	        -6753.34	         6422.68	        -330.653
      46	 1.95266	0.964138	        -6765.85	         6435.21	        -330.639
      47	  1.9555	 0.96947	         -6775.2	         6444.58	        -330.621
      48	 1.95752	 0.97683	        -6781.79	         6451.23	        -330.562
      49	 1.95901	 0.98533	        -6786.62	         6456.13	        -330.493
      50	  1.9603	0.993944	        -6790.84	         6460.37	        -330.469
      51	 1.96154	 1.00216	        -6794.99	         6464.48	        -330.511
      52	 1.96266	 1.01015	        -6798.73	         6468.17	         -330.56
      53	 1.96354	 1.01819	        -6801.65	         6471.07	        -330.578
      54	  1.9642	  1.0261	        -6803.79	         6473.24	        -330.552
      55	 1.96488	 1.03314	        -6805.93	         6475.48	        -330.451
      56	  1.9661	 1.03773	        -6809.85	         6479.51	         -330.34
      57	 1.96837	 1.03836	        -6817.32	         6486.98	        -330.333
      58	 1.97174	 1.03491	        -6828.53	         6498.07	        -330.455
      59	  1.9757	 1.02894	        -6841.74	         6511.12	        -330.624
      60	  1.9795	 1.02278	        -6854.41	         6523.66	        -330.755
      61	 1.98252	 1.01838	        -6864.45	         6533.62	        -330.831
      62	 1.98438	 1.01694	        -6870.63	         6539.76	        -330.871
      63	 1.98493	 1.01904	        -6872.42	         6541.54	        -330.872
      64	 1.98423	 1.02454	        -6870.07	         6539.24	        -330.822
      65	 1.98265	 1.03244	        -6864.75	         6534.04	        -330.709
      66	 1.98084	 1.04083	        -6858.64	         6528.09	        -330.549
      67	 1.97961	 1.04734	        -6854.47	         6524.02	        -330.446
      68	 1.97947	 1.05037	        -6854.04	         6523.57	        -330.471
      69	 1.98041	 1.04996	        -6857.21	         6526.67	         -330.54
      70	 1.98217	 1.04692	           -6863	         6532.46	        -330.549
      71	 1.98459	 1.04168	        -6870.97	         6540.44	        -330.537
      72	 1.98755	 1.03463	        -6880.78	         6550.17	        -330.607
      73	 1.99061	 1.02708	           -6891	         6560.26	        -330.746
      74	 1.99311	 1.02111	        -6899.37	         6568.51	        -330.856
      75	 1.99452	 1.01837	        -6904.05	         6573.15	        -330.897
      76	 1.99461	 1.01951	        -6904.34	         6573.45	        -330.888
      77	 1.99346	 1.02431	        -6900.48	         6569.65	        -330.824
      78	 1.99143	 1.03168	        -6893.67	         6562.99	        -330.686
      79	  1.9892	 1.03964	        -6886.18	         6555.64	        -330.538
      80	 1.98744	 1.04611	         -6880.3	         6549.82	        -330.481
      81	 1.98648	 1.05006	        -6877.15	         6546.66	        -330.491
      82	 1.98641	 1.05129	        -6876.88	         6546.42	        -330.467
      83	 1.98737	 1.04935	        -6880.02	          6549.6	        -330.419
      84	 1.98955	  1.0437	        -6887.24	         6556.79	        -330.457
      85	 1.99277	 1.03493	        -6898.01	          6567.4	        -330.611
      86	 1.99639	 1.02504	        -6910.12	         6579.33	         -330.79
      87	 1.99963	 1.01644	         -6920.9	         6589.98	        -330.916
      88	 2.00185	 1.01101	        -6928.31	         6597.31	        -331.008
      89	 2.00259	 1.01011	        -6930.84	         6599.74	        -331.102
      90	 2.00148	  1.0148	        -6927.21	         6596.11	        -331.103
      91	 1.99869	 1.02464	        -6917.79	         6586.91	        -330.877
      92	  1.9953	 1.03639	        -6906.23	         6575.72	        -330.504
      93	 1.99295	 1.04508	        -6898.22	         6567.99	        -330.223
      94	 1.99293	  1.0469	        -6898.09	         6567.91	         -330.18
      95	 1.99542	 1.04126	        -6906.49	         6576.13	        -330.366
      96	  1.9996	 1.03061	        -6920.52	         6589.89	        -330.632
      97	 2.00421	 1.01864	        -6935.87	         6605.08	        -330.792
      98	 2.00836	 1.00796	        -6949.56	         6618.77	        -330.792
      99	 2.01185	0.999194	        -6960.95	         6630.26	        -330.685
     100	 2.01494	0.991553	        -6971.04	         6640.44	        -330.595
     101	 2.01783	0.984403	        -6980.64	         6649.98	        -330.663
     102	 2.02018	0.978782	        -6988.55	         6657.73	        -330.819
     103	 2.02139	0.976568	        -6992.55	         6661.71	        -330.839
     104	 2.02139	0.977986	        -6992.35	          6661.7	        -330.655
     105	  2.0209	0.980851	        -6990.54	          6660.1	        -330.432
     106	 2.02082	0.982545	         -6990.2	         6659.81	         -330.39
     107	 2.02129	0.982595	        -6991.92	         6661.37	        -330.547
     108	 2.02168	0.982933	        -6993.41	         6662.67	        -330.735
     109	 2.02117	0.985993	        -6991.81	         6660.98	        -330.834
     110	 2.01926	0.993145	        -6985.51	         6654.67	        -330.838
     111	 2.01592	 1.00438	        -6974.44	         6643.69	        -330.751
     112	 2.01164	 1.01831	        -6960.12	         6629.58	        -330.542
     113	 2.00743	 1.03193	        -6945.95	         6615.71	        -330.242
     114	 2.00463	 1.04127	        -6936.51	         6606.48	        -330.032
     115	 2.00416	 1.04363	        -6934.99	         6604.91	        -330.081
     116	 2.00586	  1.0395	        -6940.85	         6610.52	        -330.332
     117	 2.00871	 1.03206	        -6950.55	         6619.92	        -330.625
     118	 2.01143	 1.02517	        -6959.74	         6628.87	        -330.868
     119	 2.01294	 1.02205	        -6964.86	         6633.85	        -331.016
     120	 2.01265	 1.02453	        -6963.93	         6632.89	        -331.034
     121	 2.01056	 1.03262	        -6956.97	         6626.01	        -330.959
     122	  2.0071	 1.04503	        -6945.49	          6614.6	        -330.888
     123	 2.00274	 1.06028	        -6931.08	         6600.24	        -330.845
     124	 1.99791	 1.07708	        -6915.09	         6584.33	        -330.758
     125	 1.99315	 1.09374	        -6899.29	         6568.64	         -330.65
     126	 1.98899	 1.10855	        -6885.55	         6554.94	        -330.613
     127	 1.98569	  1.1207	        -6874.66	         6544.05	        -330.619
     128	 1.98325	 1.13006	        -6866.66	         6536.03	        -330.635
     129	  1.9816	 1.13678	        -6861.27	         6530.57	        -330.694
     130	 1.98048	 1.14154	        -6857.65	         6526.87	        -330.775
     131	 1.97955	 1.14528	        -6854.66	         6523.82	         -330.84
     132	 1.97853	  1.1488	        -6851.35	         6520.46	        -330.886
     133	 1.97725	 1.15257	        -6847.14	         6516.26	         -330.88
     134	 1.97582	 1.15632	        -6842.32	         6511.53	        -330.783
     135	  1.9747	 1.15869	        -6838.47	         6507.83	        -330.639
     136	 1.97452	 1.15781	        -6837.81	         6507.26	        -330.552
     137	 1.97569	 1.15257	        -6841.67	         6511.09	        -330.581
     138	 1.97807	 1.14337	        -6849.66	         6518.96	        -330.707
     139	 1.98111	 1.13193	        -6859.84	         6528.96	        -330.882
     140	 1.98402	 1.12058	        -6869.56	         6538.55	        -331.009
     141	 1.98628	   1.111	        -6876.96	         6546.02	        -330.947
     142	 1.98812	 1.10264	        -6882.82	         6552.07	        -330.748
     143	 1.99019	 1.09353	         -6889.6	          6558.9	          -330.7
     144	 1.99259	 1.08342	        -6897.68	          6566.8	        -330.876
     145	 1.99462	 1.07455	        -6904.51	         6573.49	        -331.018
     146	 1.99567	 1.06884	         -6907.9	         6576.95	        -330.951
     147	 1.99593	 1.06574	        -6908.56	          6577.8	        -330.757
     148	 1.99611	 1.06318	        -6909.03	          6578.4	        -330.624
     149	 1.99676	 1.05965	        -6911.13	         6580.53	        -330.605
     150	 1.99796	 1.05499	        -6915.12	         6584.49	        -330.633
     151	  1.9995	 1.04983	         -6920.3	         6589.58	        -330.718
     152	 2.00087	 1.04563	        -6924.98	          6594.1	        -330.884
     153	 2.00129	 1.04469	        -6926.45	         6595.46	        -330.993
     154	 2.00021	 1.04856	        -6922.85	          6591.9	        -330.956
     155	 1.99768	 1.05693	        -6914.43	         6583.57	        -330.855
     156	 1.99414	 1.06844	        -6902.65	         6571.89	        -330.761
     157	 1.99008	 1.08148	        -6889.21	         6558.54	        -330.673
     158	 1.98605	  1.0944	        -6875.84	         6545.24	        -330.595
     159	 1.98252	 1.10562	        -6864.17	         6533.61	        -330.556
     160	 1.97982	 1.11408	        -6855.28	          6524.7	        -330.579
     161	 1.97802	 1.11946	        -6849.43	         6518.78	        -330.642
     162	 1.97706	 1.12191	        -6846.31	         6515.63	        -330.677
     163	 1.97696	 1.12135	        -6845.98	          6515.3	        -330.684
     164	  1.9778	 1.11751	        -6848.83	         6518.07	         -330.76
     165	 1.97948	 1.11084	        -6854.42	         6523.59	         -330.83
     166	   1.982	 1.10163	        -6862.62	          6531.9	        -330.714
     167	 1.98573	 1.08884	        -6874.98	         6544.18	        -330.791
     168	 1.99011	 1.07413	        -6889.82	         6558.61	        -331.203
     169	 1.99344	 1.06288	        -6900.94	          6569.6	         -331.34
     170	  1.9948	 1.05779	        -6905.27	         6574.07	        -331.209
     171	 1.99438	 1.05809	         -6903.8	         6572.71	        -331.096
     172	 1.99261	 1.06255	        -6897.95	         6566.86	        -331.091
     173	 1.98957	 1.07084	        -6887.99	         6556.85	         -331.14
     174	 1.98526	 1.08293	        -6873.71	         6542.64	        -331.073
     175	  1.9802	 1.09724	        -6856.73	         6525.97	        -330.766
     176	 1.97578	 1.10952	        -6841.84	         6511.41	        -330.431
     177	 1.97337	 1.11549	        -6833.87	         6503.46	         -330.41
     178	 1.97318	 1.11456	        -6833.39	         6502.82	        -330.564
     179	 1.97466	 1.10847	        -6838.29	         6507.72	        -330.575
     180	 1.97762	 1.09785	        -6847.93	         6517.45	        -330.478
     181	 1.98213	  1.0824	        -6862.84	         6532.33	        -330.509
     182	 1.98782	  1.0634	         -6881.8	         6551.06	        -330.735
     183	 1.99356	 1.04431	        -6900.94	         6569.99	        -330.956
     184	 1.99825	 1.02854	        -6916.44	         6585.45	         -330.99
     185	 2.00149	 1.01737	           -6927	         6596.13	        -330.872
     186	 2.00352	 1.01012	        -6933.58	         6602.83	        -330.749
     187	  2.0047	 1.00582	        -6937.41	          6606.7	        -330.714
     188	 2.00508	 1.00433	        -6938.72	         6607.95	        -330.773
     189	 2.00441	 1.00639	        -6936.61	         6605.74	        -330.864
     190	 2.00238	 1.01288	        -6929.97	         6599.06	        -330.903
     191	 1.99898	 1.02379	        -6918.68	         6587.84	        -330.841
     192	 1.99465	 1.03767	         -6904.3	         6573.58	        -330.718
     193	 1.99014	 1.05219	        -6889.35	         6558.72	         -330.63
     194	 1.98609	 1.06538	        -6875.99	         6545.37	        -330.616
     195	 1.98285	 1.07613	         -6865.3	         6534.69	        -330.616
     196	 1.98064	 1.08374	           -6858	         6527.42	        -330.579
     197	 1.97975	 1.08736	        -6855.02	         6524.49	        -330.536
     198	 1.98038	 1.08637	        -6857.13	         6526.57	        -330.565
     199	 1.98242	 1.08116	        -6863.95	         6533.28	        -330.671
     200	 1.98547	 1.07303	        -6874.06	         6543.34	        -330.715
     201	 1.98934	 1.06274	        -6886.74	         6556.07	        -330.669
     202	 1.99401	 1.05031	        -6902.22	         6571.48	        -330.738
     203	 1.99904	 1.03716	        -6919.01	         6588.04	        -330.973
     204	 2.00332	 1.02665	        -6933.34	         6602.17	        -331.167
     205	 2.00588	 1.02177	        -6941.82	         6610.61	        -331.217
     206	 2.00633	 1.02365	        -6943.21	         6612.07	        -331.143
     207	 2.00487	 1.03168	        -6938.26	         6607.26	        -330.995
     208	 2.00209	 1.04409	        -6928.99	         6598.12	        -330.875
     209	 1.99853	 1.05923	        -6917.26	         6586.38	        -330.879
     210	 1.99431	 1.07662	        -6903.42	         6572.45	         -330.97
     211	 1.98928	 1.09658	         -6886.9	         6555.88	        -331.018
     212	 1.98345	 1.11888	        -6867.71	         6536.68	        -331.037
     213	 1.97695	 1.14287	        -6846.36	         6515.25	        -331.115
     214	 1.96987	 1.16814	        -6823.01	         6491.92	        -331.087
     215	 1.96286	 1.19277	        -6799.61	         6468.83	         -330.78
     216	 1.95742	 1.21207	        -6781.44	         6450.89	         -330.55
     217	 1.95474	 1.22244	        -6772.59	         6442.06	        -330.526
     218	 1.95514	 1.22309	        -6773.88	         6443.37	         -330.51
     219	 1.95853	 1.21423	        -6785.09	         6454.54	        -330.553
     220	 1.96444	 1.19728	        -6804.77	         6474.04	        -330.728
     221	 1.97183	 1.17545	         -6829.4	         6498.37	        -331.029
     222	 1.97928	  1.1532	         -6854.1	         6522.93	        -331.173
     223	 1.98599	 1.13316	        -6876.18	         6545.04	        -331.131
     224	 1.99165	 1.11614	        -6895.01	         6563.71	        -331.298
     225	 1.99547	 1.10477	         -6907.7	         6576.29	        -331.416
     226	 1.99681	 1.10101	           -6912	         6580.71	        -331.286
     227	 1.99601	 1.10376	        -6909.16	         6578.06	        -331.101
     228	 1.99383	 1.11064	        -6901.85	         6570.88	        -330.969
     229	 1.99101	 1.11945	        -6892.45	          6561.6	        -330.855
     230	  1.9883	 1.12798	        -6883.34	         6552.65	        -330.685
     231	 1.98662	 1.13344	        -6877.62	         6547.13	        -330.486
     232	 1.98685	 1.13314	        -6878.38	         6547.87	        -330.512
     233	 1.98878	 1.12753	        -6885.16	         6554.25	        -330.902
     234	 1.99082	 1.12141	        -6892.32	         6560.97	         -331.35
     235	 1.99107	 1.12043	         -6893.3	         6561.77	        -331.522
     236	 1.98873	 1.12689	        -6885.42	         6554.06	        -331.356
     237	 1.98453	 1.13867	        -6871.17	         6540.22	        -330.952
     238	 1.98026	 1.15053	        -6856.69	         6526.15	        -330.539
     239	 1.97772	 1.15714	        -6848.17	         6517.78	        -330.395
     240	  1.9776	 1.15647	        -6847.96	         6517.39	        -330.573
     241	 1.97927	  1.1505	        -6853.72	         6522.89	        -330.837
     242	 1.98162	 1.14258	        -6861.61	         6530.66	        -330.953
     243	 1.98406	 1.13456	        -6869.58	         6538.67	        -330.905
     244	  1.9866	 1.12638	        -6877.88	         6547.06	        -330.819
     245	 1.98948	 1.11745	        -6887.38	         6556.55	        -330.832
     246	 1.99258	 1.10818	        -6897.72	         6566.76	        -330.958
     247	 1.99538	 1.10019	        -6907.08	            6576	        -331.076
     248	 1.99741	 1.09501	        -6913.76	         6582.67	        -331.092
     249	 1.99851	 1.09307	        -6917.38	          6586.3	        -331.077
     250	 1.99864	 1.09449	         -6917.9	         6586.74	        -331.155
     251	 1.99746	 1.10036	        -6914.14	         6582.86	        -331.283
     252	 1.99449	 1.11216	        -6904.38	         6573.07	        -331.311
     253	 1.98969	 1.13002	         -6888.4	         6557.23	        -331.173
     254	 1.98364	 1.15211	        -6868.31	         6537.29	        -331.015
     255	 1.97699	  1.1763	        -6846.43	         6515.39	        -331.031
     256	 1.96984	 1.20222	        -6822.92	         6491.81	        -331.109
     257	 1.96206	 1.23009	         -6797.2	         6466.19	        -331.018
     258	 1.95418	 1.25817	        -6770.97	         6440.21	         -330.76
     259	 1.94736	 1.28277	        -6748.27	         6417.75	        -330.515
     260	 1.94278	 1.30029	        -6733.06	         6402.64	        -330.422
     261	 1.94096	 1.30906	        -6727.15	         6396.64	        -330.507
     262	 1.94162	 1.30982	        -6729.57	         6398.84	        -330.731
     263	 1.94388	 1.30518	        -6737.24	         6406.26	        -330.984
     264	 1.94668	 1.29824	         -6746.6	         6415.48	        -331.114
     265	 1.94946	 1.29067	        -6755.73	         6424.67	        -331.063
     266	 1.95239	 1.28205	        -6765.25	          6434.3	        -330.943
     267	 1.95586	 1.27118	         -6776.7	         6445.76	        -330.938
     268	 1.95985	  1.2582	        -6790.03	         6458.91	        -331.119
     269	 1.96362	 1.24541	        -6802.66	         6471.33	        -331.329
     270	 1.96631	 1.23545	        -6811.55	         6480.19	        -331.355
     271	 1.96773	 1.22895	        -6816.08	         6484.88	        -331.204
     272	 1.96837	 1.22448	        -6818.03	         6486.97	        -331.058
     273	 1.96875	 1.22057	        -6819.21	         6488.23	        -330.981
     274	 1.96916	 1.21649	         -6820.5	         6489.59	        -330.911
     275	 1.96979	 1.21178	        -6822.48	         6491.65	        -330.837
     276	 1.97079	 1.20602	        -6825.71	         6494.94	         -330.77
     277	 1.97227	 1.19899	        -6830.57	         6499.82	        -330.747
     278	 1.97414	 1.19099	         -6836.8	            6506	        -330.803
     279	 1.97606	 1.18316	        -6843.19	         6512.31	        -330.879
     280	 1.97762	 1.17674	        -6848.35	         6517.45	        -330.895
     281	  1.9787	 1.17213	        -6851.87	         6521.03	        -330.837
     282	 1.97951	 1.16875	        -6854.48	          6523.7	        -330.777
     283	 1.98028	 1.16589	        -6857.03	         6526.23	        -330.802
     284	 1.98094	 1.16375	        -6859.32	          6528.4	        -330.918
     285	 1.98109	 1.16351	        -6859.97	          6528.9	        -331.068
     286	 1.98021	 1.16668	         -6857.2	            6526	        -331.203
     287	 1.97788	 1.17445	         -6849.6	         6518.33	        -331.271
     288	 1.97403	 1.18699	        -6836.88	         6505.64	        -331.239
     289	 1.96899	 1.20318	        -6820.22	         6489.03	        -331.185
     290	 1.96323	 1.22148	        -6801.22	         6470.05	         -331.17
     291	 1.95716	 1.24059	        -6781.15	         6450.03	        -331.115
     292	 1.95128	 1.25886	        -6761.65	         6430.66	         -330.99
     293	 1.94628	 1.27414	        -6745.01	         6414.19	        -330.815
     294	 1.94291	 1.28409	        -6733.71	         6403.06	        -330.646
     295	 1.94169	 1.28697	        -6729.66	         6399.07	        -330.587
     296	 1.94266	 1.28266	        -6732.92	         6402.25	        -330.675
     297	 1.94518	 1.27294	        -6741.41	         6410.57	        -330.838
     298	 1.94835	  1.2605	        -6751.97	            6421	        -330.972
     299	 1.95141	 1.24756	        -6762.08	         6431.09	        -330.985
     300	 1.95424	 1.23462	        -6771.23	         6440.41	         -330.82
     301	 1.95744	 1.21998	        -6781.54	         6450.97	        -330.568
     302	 1.96196	   1.201	        -6796.28	         6465.87	        -330.414
     303	  1.9683	 1.17633	         -6817.2	         6486.76	         -330.44
     304	 1.97616	 1.14704	        -6843.26	         6512.65	        -330.617
     305	 1.98452	 1.11624	        -6871.07	         6540.22	        -330.857
     306	 1.99211	 1.08787	        -6896.27	         6565.23	        -331.038
     307	 1.99792	 1.06503	        -6915.44	         6584.37	        -331.071
     308	 2.00162	 1.04881	         -6927.5	         6596.54	        -330.961
     309	 2.00351	 1.03831	        -6933.61	         6602.79	        -330.817
     310	 2.00416	 1.03195	        -6935.68	         6604.92	        -330.766
     311	  2.0038	 1.02895	        -6934.57	         6603.75	        -330.822
     312	 2.00235	 1.02958	        -6929.83	         6598.95	        -330.874
     313	 1.99973	 1.03391	        -6921.15	         6590.34	        -330.814
     314	 1.99634	  1.0407	        -6909.81	         6579.16	        -330.652
     315	 1.99296	 1.04747	        -6898.51	         6568.02	        -330.493
     316	 1.99037	  1.0518	         -6889.9	         6559.48	        -330.421
     317	   1.989	 1.05233	        -6885.38	         6554.95	        -330.423
     318	 1.98895	 1.04875	        -6885.21	          6554.8	        -330.408
     319	 1.99034	 1.04077	        -6889.71	         6559.37	        -330.337
     320	 1.99333	 1.02788	        -6899.59	         6569.24	        -330.347
     321	 1.99769	 1.01078	        -6914.18	         6583.61	        -330.578
     322	 2.00231	0.992844	        -6929.73	         6598.83	        -330.902
     323	 2.00571	0.978544	        -6941.13	         6610.03	        -331.105
     324	 2.00688	0.970886	        -6945.01	         6613.89	        -331.116
     325	 2.00569	0.970291	        -6940.93	         6609.96	        -330.971
     326	 2.00274	0.974965	        -6931.01	         6600.24	        -330.777
     327	 1.99893	0.982195	        -6918.33	          6587.7	        -330.635
     328	 1.99509	0.989565	        -6905.56	         6575.03	        -330.528
     329	 1.99194	0.994937	        -6895.03	         6564.65	        -330.379
     330	 1.99031	0.995862	        -6889.53	         6559.29	        -330.231
     331	 1.99089	0.990308	        -6891.44	          6561.2	        -330.239
     332	 1.99366	0.978394	        -6900.69	         6570.31	        -330.379
     333	 1.99794	 0.96221	        -6914.96	         6584.43	        -330.525
     334	  2.0029	0.944322	        -6931.41	         6600.76	        -330.652
     335	 2.00773	0.927149	        -6947.43	         6616.68	        -330.743
     336	 2.01185	0.912563	        -6961.03	         6630.26	         -330.77
     337	 2.01496	0.901537	        -6971.27	         6640.51	        -330.758
     338	 2.01697	0.894382	         -6977.9	         6647.14	        -330.753
     339	 2.01785	0.891282	        -6980.79	         6650.03	        -330.759
     340	 2.01757	0.892336	        -6979.85	         6649.12	         -330.73
     341	 2.01629	0.897108	        -6975.56	         6644.89	        -330.676
     342	 2.01427	0.904735	         -6968.9	         6638.25	        -330.646
     343	 2.01176	  0.9145	        -6960.62	         6629.96	        -330.658
     344	  2.0088	 0.92614	        -6950.97	         6620.23	        -330.738
     345	 2.00518	0.940174	        -6939.19	         6608.28	         -330.91
     346	 2.00039	0.957942	        -6923.52	         6592.51	        -331.012
     347	 1.99438	0.979635	         -6903.5	          6572.7	        -330.799
     348	 1.98826	 1.00185	        -6882.93	         6552.54	         -330.39
     349	 1.98379	 1.01919	        -6867.97	         6537.79	        -330.178
     350	 1.98195	 1.02868	        -6861.97	         6531.75	        -330.228
     351	  1.9826	 1.03083	        -6864.26	         6533.86	        -330.402
     352	 1.98489	 1.02801	        -6872.03	         6541.43	        -330.599
     353	 1.98787	 1.02312	        -6881.99	         6551.24	        -330.756
     354	 1.99072	 1.01858	        -6891.47	         6560.63	        -330.834
     355	 1.99299	 1.01586	        -6898.94	          6568.1	        -330.838
     356	 1.99454	 1.01539	        -6904.05	         6573.21	        -330.839
     357	 1.99529	 1.01746	        -6906.59	          6575.7	        -330.894
     358	 1.99502	 1.02279	        -6905.76	         6574.82	        -330.947
     359	 1.99356	  1.0319	         -6900.9	            6570	        -330.906
     360	  1.9911	 1.04418	        -6892.67	         6561.87	        -330.795
     361	 1.98811	 1.05809	        -6882.75	         6552.03	        -330.721
     362	 1.98501	 1.07233	        -6872.52	         6541.83	        -330.686
     363	 1.98216	 1.08587	        -6862.97	         6532.41	         -330.56
     364	 1.98019	 1.09674	        -6856.28	         6525.94	        -330.338
     365	 1.98002	 1.10219	        -6855.62	         6525.38	        -330.238
     366	 1.98197	 1.10119	         -6862.2	          6531.8	        -330.402
     367	 1.98529	 1.09599	        -6873.45	         6542.72	        -330.725
     368	 1.98853	 1.09087	        -6884.43	         6553.43	        -330.997
     369	  1.9905	 1.08952	        -6890.98	          6559.9	        -331.079
     370	 1.99071	 1.09331	        -6891.67	         6560.61	        -331.056
     371	 1.98922	 1.10211	        -6886.74	         6555.67	         -331.07
     372	 1.98609	 1.11579	        -6876.41	         6545.36	        -331.049
     373	  1.9816	 1.13355	        -6861.51	         6530.58	         -330.93
     374	 1.97643	 1.15332	        -6844.32	         6513.53	        -330.791
     375	 1.97137	 1.17263	        -6827.54	         6496.85	        -330.694
     376	 1.96707	 1.18942	        -6813.34	          6482.7	         -330.64
     377	   1.964	 1.20225	        -6803.17	         6472.57	        -330.599
     378	 1.96248	 1.21002	        -6798.14	         6467.58	        -330.565
     379	  1.9627	 1.21209	        -6798.92	         6468.31	        -330.612
     380	 1.96444	 1.20906	        -6804.79	         6474.03	        -330.766
     381	   1.967	 1.20303	        -6813.39	         6482.45	        -330.935
     382	 1.96954	 1.19647	        -6821.91	         6490.83	        -331.076
     383	 1.97134	 1.19154	        -6827.95	         6496.75	        -331.199
     384	 1.97184	 1.18987	        -6829.64	         6498.42	        -331.225
     385	 1.97103	 1.19166	         -6826.8	         6495.75	        -331.046
     386	  1.9697	 1.19461	        -6822.11	         6491.37	        -330.741
     387	 1.96906	 1.19511	        -6819.83	         6489.26	        -330.575
     388	 1.96975	 1.19131	        -6822.17	         6491.53	        -330.639
     389	 1.97148	 1.18416	        -6828.01	         6497.22	        -330.785
     390	 1.97353	 1.17583	        -6834.87	         6503.99	        -330.882
     391	 1.97535	 1.16799	        -6840.88	         6509.98	        -330.899
     392	 1.97675	 1.16125	        -6845.43	          6514.6	        -330.832
     393	 1.97793	 1.15512	        -6849.22	         6518.49	         -330.73
     394	 1.97924	 1.14863	        -6853.48	         6522.81	        -330.676
     395	 1.98088	 1.14131	        -6858.87	          6528.2	        -330.673
     396	  1.9828	 1.13336	        -6865.25	         6534.54	        -330.704
     397	 1.98478	 1.12549	        -6871.87	         6541.07	        -330.797
     398	 1.98634	  1.1191	        -6877.16	         6546.21	        -330.944
     399	 1.98685	 1.11605	        -6878.96	         6547.89	        -331.071
     400	 1.98586	 1.11764	         -6875.7	         6544.61	        -331.085
     401	 1.98348	  1.1235	        -6867.69	         6536.76	        -330.929
     402	 1.98058	 1.13099	        -6857.87	          6527.2	        -330.666
     403	 1.97846	 1.13617	        -6850.69	         6520.23	        -330.461
     404	 1.97817	 1.13589	        -6849.71	         6519.28	        -330.432
     405	 1.97997	 1.12938	        -6855.74	         6525.19	        -330.547
     406	 1.98339	 1.11795	        -6867.19	         6536.49	          -330.7
     407	  1.9877	 1.10381	        -6881.52	         6550.69	        -330.831
     408	 1.99215	 1.08913	        -6896.26	         6565.35	        -330.912
     409	 1.99622	 1.07552	        -6909.66	         6578.77	        -330.896
     410	  1.9998	 1.06336	        -6921.34	         6590.56	        -330.789
     411	 2.00314	 1.05193	        -6932.25	         6601.58	        -330.678
     412	 2.00654	 1.04042	        -6943.44	         6612.78	        -330.655
     413	 2.00999	 1.02898	        -6954.83	         6624.13	        -330.699
     414	 2.01321	 1.01856	        -6965.48	         6634.74	        -330.741
     415	  2.0159	 1.01012	        -6974.41	         6643.62	        -330.789
     416	 2.01775	 1.00471	         -6980.6	         6649.72	        -330.885
     417	 2.01831	  1.0037	        -6982.54	         6651.56	        -330.981
     418	 2.01722	 1.00824	        -6978.96	         6647.98	         -330.98
     419	 2.01456	 1.01811	        -6970.07	         6639.21	        -330.864
     420	  2.0109	 1.03158	        -6957.86	         6627.15	        -330.712
     421	 2.00699	 1.04635	         -6944.9	         6614.26	        -330.639
     422	 2.00327	 1.06098	        -6932.72	         6601.99	        -330.729
     423	 1.99954	 1.07587	        -6920.63	         6589.71	        -330.912
     424	 1.99534	 1.09229	        -6906.82	         6575.85	        -330.967
     425	 1.99069	 1.10999	        -6891.32	         6560.54	        -330.778
     426	 1.98661	 1.12585	        -6877.52	         6547.08	        -330.442
     427	 1.98459	 1.13527	        -6870.66	         6540.44	        -330.219
     428	 1.98558	 1.13536	           -6874	         6543.68	        -330.316
     429	 1.98913	  1.1274	        -6886.02	          6555.4	        -330.623
     430	 1.99386	 1.11559	        -6901.87	         6570.98	        -330.893
     431	 1.99837	  1.1041	        -6916.85	         6585.83	        -331.022
     432	 2.00184	 1.09545	        -6928.29	         6597.26	        -331.027
     433	 2.00403	 1.09046	        -6935.46	         6604.48	        -330.981
     434	 2.00498	 1.08909	        -6938.61	         6607.63	         -330.98
     435	 2.00465	 1.09155	        -6937.59	         6606.53	        -331.061
     436	 2.00278	 1.09859	         -6931.5	         6600.38	        -331.119
     437	 1.99936	  1.1103	        -6920.12	         6589.12	        -331.005
     438	 1.99514	 1.12447	        -6905.89	         6575.19	        -330.692
     439	 1.99165	 1.13651	        -6894.07	         6563.69	        -330.379
     440	 1.99029	 1.14215	        -6889.63	         6559.22	         -330.41
     441	 1.99104	 1.14142	        -6892.48	         6561.69	        -330.798
     442	 1.99241	 1.13876	        -6897.37	          6566.2	        -331.167
     443	 1.99284	 1.13877	        -6898.91	         6567.63	        -331.281
     444	 1.99178	 1.14304	        -6895.27	         6564.12	        -331.154
     445	 1.98973	 1.15004	        -6888.29	         6557.38	        -330.914
     446	 1.98777	 1.15666	        -6881.63	         6550.91	        -330.711
     447	 1.98684	 1.16014	        -6878.49	         6547.85	        -330.634
     448	 1.98731	  1.1594	        -6880.12	         6549.41	        -330.712
     449	  1.9888	 1.15552	        -6885.24	          6554.3	        -330.939
     450	 1.99023	 1.15155	        -6890.23	         6559.02	         -331.21
     451	  1.9904	 1.15104	        -6890.89	         6559.57	        -331.319
     452	 1.98881	 1.15543	        -6885.46	         6554.34	        -331.127
     453	 1.98624	 1.16242	        -6876.59	         6545.87	        -330.723
     454	 1.98427	 1.16721	        -6869.85	         6539.38	        -330.467
     455	 1.98389	 1.16681	        -6868.72	         6538.13	        -330.592
     456	 1.98467	 1.16254	        -6871.56	         6540.71	        -330.852
     457	 1.98563	  1.1574	         -6874.8	         6543.85	        -330.942
     458	 1.98635	 1.15256	         -6877.1	         6546.22	        -330.876
     459	 1.98703	 1.14731	        -6879.35	         6548.48	        -330.877
     460	 1.98778	 1.14142	        -6881.86	         6550.94	        -330.919
     461	 1.98866	 1.13491	        -6884.59	         6553.84	        -330.757
     462	 1.99041	 1.12567	         -6890.1	         6559.62	        -330.478
     463	 1.99406	 1.11068	         -6902.1	         6571.63	        -330.474
     464	 1.99947	 1.09038	        -6920.31	         6589.45	        -330.858
     465	 2.00504	 1.06976	        -6939.06	         6607.83	        -331.222
     466	 2.00918	 1.05381	        -6952.72	         6621.46	         -331.26
     467	 2.01145	 1.04377	        -6960.06	         6628.94	        -331.116
     468	 2.01221	 1.03858	        -6962.51	         6631.47	        -331.042
     469	 2.01177	 1.03755	        -6960.95	            6630	        -330.947
     470	 2.01048	 1.03964	        -6956.51	         6625.76	        -330.749
     471	 2.00903	 1.04278	        -6951.57	         6620.97	        -330.594
     472	 2.00794	 1.04533	        -6947.96	         6617.38	        -330.584
     473	 2.00721	 1.04727	        -6945.63	         6614.96	         -330.67
     474	 2.00645	 1.04964	        -6943.21	         6612.46	         -330.75
     475	 2.00532	 1.05336	        -6939.49	         6608.73	        -330.759
     476	 2.00378	 1.05837	        -6934.38	         6603.69	        -330.699
     477	 2.00215	 1.06366	        -6928.92	         6598.31	         -330.61
     478	 2.00091	 1.06773	        -6924.71	         6594.21	        -330.504
     479	 2.00062	 1.06886	        -6923.65	         6593.26	        -330.382
     480	 2.00187	 1.06537	        -6927.68	         6597.38	        -330.302
     481	 2.00496	  1.0564	        -6937.91	         6607.57	        -330.343
     482	 2.00962	 1.04282	        -6953.45	         6622.93	        -330.517
     483	 2.01496	 1.02739	        -6971.28	         6640.52	        -330.762
     484	 2.01974	 1.01387	        -6987.25	         6656.27	        -330.982
     485	 2.02283	  1.0057	        -6997.57	         6666.46	        -331.112
     486	 2.02353	 1.00502	         -6999.9	         6668.75	        -331.149
     487	  2.0216	  1.0125	        -6993.53	         6662.41	        -331.118
     488	 2.01728	 1.02748	        -6979.17	         6648.15	        -331.014
     489	  2.0112	 1.04798	        -6958.95	         6628.13	        -330.819
     490	 2.00446	 1.07065	        -6936.52	         6605.93	        -330.595
     491	 1.99825	  1.0918	        -6915.92	         6585.44	        -330.476
     492	 1.99331	 1.10903	        -6899.65	         6569.16	        -330.497
     493	 1.98978	 1.12178	         -6888.1	         6557.53	        -330.576
     494	 1.98748	 1.13048	        -6880.57	         6549.95	        -330.615
     495	 1.98635	  1.1353	        -6876.74	         6546.22	         -330.52
     496	 1.98679	 1.13507	           -6878	         6547.67	        -330.323
     497	 1.98947	 1.12781	        -6886.75	          6556.5	        -330.245
     498	 1.99452	 1.11317	        -6903.57	         6573.16	         -330.41
     499	  2.0011	 1.09377	        -6925.55	         6594.85	        -330.706
     500	 2.00781	 1.07386	        -6947.88	         6616.95	        -330.938
     501	 2.01347	 1.05699	        -6966.63	          6635.6	        -331.034
     502	 2.01748	 1.04499	        -6979.86	         6648.81	        -331.053
     503	 2.01965	  1.0385	        -6986.96	         6655.96	        -331.005
     504	 2.02013	 1.03718	        -6988.43	         6657.54	        -330.889
     505	 2.01936	 1.03972	        -6985.78	         6655.02	        -330.759
     506	 2.01789	 1.04453	        -6980.84	         6650.17	        -330.671
     507	  2.0161	 1.05042	        -6974.93	         6644.27	        -330.662
     508	 2.01409	 1.05702	        -6968.35	         6637.63	        -330.721
     509	 2.01169	 1.06475	        -6960.52	         6629.75	        -330.767
     510	 2.00884	 1.07384	        -6951.07	         6620.36	         -330.71
     511	 2.00585	 1.08335	        -6941.06	         6610.49	        -330.577
     512	 2.00329	 1.09152	        -6932.56	         6602.05	        -330.506
     513	  2.0015	 1.09736	        -6926.74	         6596.16	        -330.577
     514	 2.00025	 1.10154	        -6922.79	         6592.05	        -330.739
     515	 1.99893	 1.10584	        -6918.56	         6587.69	        -330.874
     516	 1.99704	 1.11167	        -6912.33	         6581.47	         -330.86
     517	 1.99473	 1.11857	        -6904.53	         6573.84	        -330.688
     518	 1.99278	 1.12418	        -6897.91	         6567.42	        -330.484
     519	 1.99211	 1.12578	        -6895.65	         6565.22	        -330.431
     520	 1.99299	 1.12255	        -6898.73	         6568.13	        -330.609
     521	 1.99474	 1.11659	        -6904.78	         6573.89	        -330.891
     522	 1.99622	 1.11132	        -6909.84	         6578.77	         -331.07
     523	 1.99666	 1.10908	        -6911.27	          6580.2	         -331.07
     524	 1.99599	 1.11005	        -6908.99	         6577.99	        -330.995
     525	 1.99454	 1.11328	        -6904.17	         6573.22	        -330.946
     526	 1.99267	  1.1178	        -6897.94	         6567.06	        -330.872
     527	 1.99087	 1.12222	        -6891.84	         6561.13	        -330.706
     528	  1.9899	 1.12428	        -6888.49	         6557.94	        -330.546
     529	  1.9904	 1.12203	        -6890.13	         6559.56	        -330.566
     530	 1.99219	  1.1159	        -6896.25	         6565.46	        -330.781
     531	 1.99431	 1.10875	        -6903.48	         6572.47	         -331.01
     532	 1.99572	 1.10369	        -6908.19	         6577.13	        -331.066
     533	 1.99608	 1.10179	        -6909.21	         6578.29	        -330.916
     534	 1.99589	 1.10155	        -6908.37	         6577.68	         -330.69
     535	 1.99606	 1.10043	         -6908.8	         6578.24	        -330.559
     536	 1.99712	 1.09693	        -6912.34	         6581.71	         -330.63
     537	 1.99875	   1.092	        -6918.01	         6587.11	        -330.897
     538	 1.99989	 1.08884	        -6922.07	         6590.87	        -331.202
     539	 1.99935	 1.09098	        -6920.38	         6589.07	        -331.315
     540	 1.99671	 1.09954	        -6911.54	         6580.37	        -331.169
     541	 1.99261	 1.11249	         -6897.8	         6566.86	        -330.939
     542	 1.98809	 1.12655	        -6882.74	         6551.97	        -330.766
     543	 1.98405	 1.13896	        -6869.27	         6538.66	        -330.615
     544	 1.98123	 1.14735	        -6859.83	         6529.37	        -330.464
     545	 1.98026	 1.14971	        -6856.53	         6526.15	        -330.385
     546	 1.98138	 1.14516	        -6860.26	         6529.84	         -330.42
     547	 1.98434	 1.13443	        -6870.15	         6539.61	        -330.534
     548	 1.98851	 1.11942	        -6884.03	         6553.35	        -330.676
     549	 1.99311	 1.10247	        -6899.31	         6568.52	         -330.79
     550	 1.99752	  1.0856	        -6913.89	         6583.04	        -330.845
     551	 2.00135	 1.07002	        -6926.52	         6595.65	        -330.866
     552	 2.00442	 1.05641	        -6936.65	         6605.79	        -330.861
     553	 2.00676	 1.04488	        -6944.28	         6613.48	        -330.791
     554	 2.00862	 1.03477	         -6950.3	         6619.61	        -330.688
     555	 2.01036	  1.0251	        -6956.02	         6625.36	        -330.659
     556	 2.01205	 1.01572	        -6961.69	         6630.93	         -330.76
     557	 2.01327	 1.00797	        -6965.84	         6634.93	        -330.906
     558	 2.01344	 1.00356	        -6966.47	         6635.51	        -330.966
     559	 2.01238	 1.00305	        -6962.91	         6632.02	        -330.891
     560	 2.01054	 1.00514	        -6956.61	         6625.96	        -330.647
     561	  2.0091	 1.00641	        -6951.51	         6621.22	        -330.296
     562	 2.00952	 1.00251	        -6952.69	         6622.57	        -330.118
     563	 2.01245	0.991468	        -6962.51	         6632.24	        -330.262
     564	  2.0172	0.975438	         -6978.5	         6647.91	         -330.59
     565	  2.0222	0.959141	        -6995.29	         6664.39	        -330.901
     566	  2.0259	0.947204	        -7007.63	         6676.57	        -331.053
     567	 2.02742	0.942258	         -7012.6	         6681.57	        -331.024
     568	 2.02671	0.944456	        -7010.12	         6679.24	        -330.876
     569	 2.02433	0.952177	         -7002.1	          6671.4	        -330.699
     570	 2.02102	0.963179	        -6991.06	         6660.48	        -330.575
     571	 2.01734	0.975674	        -6978.91	         6648.36	        -330.545
     572	 2.01352	0.988869	        -6966.36	         6635.77	        -330.591
     573	 2.00952	  1.0027	        -6953.21	         6622.59	         -330.62
     574	 2.00548	 1.01669	        -6939.78	         6609.29	        -330.487
     575	 2.00227	 1.02831	        -6928.84	         6598.68	        -330.159
     576	  2.0013	 1.03318	         -6925.5	         6595.51	        -329.987
     577	 2.00329	 1.02914	        -6932.26	         6602.07	        -330.189
     578	 2.00746	 1.01866	        -6946.24	          6615.8	        -330.443
     579	 2.01254	 1.00549	        -6963.15	         6632.55	        -330.597
     580	 2.01759	0.992446	        -6979.89	         6649.18	        -330.711
     581	  2.0219	0.981667	         -6994.2	         6663.39	        -330.809
     582	   2.025	0.974722	        -7004.44	         6673.61	        -330.834
     583	 2.02681	 0.97199	        -7010.34	         6679.58	        -330.756
     584	 2.02768	  0.9725	        -7013.15	         6682.45	        -330.702
     585	 2.02791	0.975415	        -7013.93	         6683.18	        -330.749
     586	 2.02745	0.980907	        -7012.46	         6681.69	        -330.768
     587	 2.02629	0.989038	        -7008.65	         6677.86	        -330.781
     588	 2.02432	0.999943	        -7002.28	         6671.38	          -330.9
     589	 2.02111	 1.01482	        -6991.84	          6660.8	        -331.043
     590	  2.0162	 1.03492	        -6975.66	         6644.59	        -331.071
     591	 2.00966	 1.05988	        -6953.95	         6623.04	        -330.915
     592	 2.00238	 1.08693	        -6929.71	         6599.05	        -330.658
     593	 1.99567	 1.11201	        -6907.44	         6576.96	        -330.479
     594	 1.99057	 1.13198	        -6890.61	         6560.15	        -330.453
     595	 1.98744	 1.14571	        -6880.36	         6549.83	        -330.535
     596	 1.98607	 1.15373	        -6875.98	         6545.31	        -330.673
     597	 1.98592	  1.1576	        -6875.65	         6544.82	        -330.829
     598	 1.98634	 1.15927	        -6877.14	         6546.19	        -330.957
     599	 1.98674	 1.16043	        -6878.53	         6547.51	        -331.018
     600	 1.98682	 1.16202	        -6878.81	         6547.79	         -331.02
     601	 1.98652	 1.16425	        -6877.79	          6546.8	        -330.995
     602	  1.9859	 1.16698	        -6875.68	         6544.73	        -330.943
     603	 1.98515	  1.1697	        -6873.11	         6542.26	        -330.842
     604	 1.98464	 1.17138	        -6871.34	          6540.6	        -330.732
     605	 1.98472	 1.17107	        -6871.57	         6540.84	        -330.724
     606	 1.98529	 1.16903	        -6873.56	         6542.73	        -330.825
     607	 1.98585	 1.16689	        -6875.52	         6544.57	        -330.952
     608	 1.98576	 1.16653	        -6875.33	         6544.29	        -331.032
     609	 1.98467	  1.1691	        -6871.69	         6540.69	        -331.008
     610	 1.98268	 1.17427	        -6865.02	         6534.15	        -330.875
     611	 1.98042	 1.18026	        -6857.39	         6526.68	        -330.715
     612	 1.97861	 1.18488	        -6851.35	         6520.71	        -330.638
     613	 1.97764	 1.18691	        -6848.23	         6517.52	        -330.715
     614	 1.97724	 1.18708	        -6847.13	          6516.2	        -330.922
     615	 1.97667	 1.18752	        -6845.39	         6514.33	        -331.051
     616	 1.97558	  1.1893	        -6841.62	         6510.74	         -330.88
     617	 1.97477	 1.19004	        -6838.58	         6508.06	        -330.522
     618	 1.97563	 1.18546	        -6841.29	         6510.89	        -330.399
     619	 1.97866	  1.1741	        -6851.45	         6520.89	        -330.563
     620	 1.98315	 1.15818	        -6866.49	          6535.7	        -330.792
     621	 1.98795	  1.1411	        -6882.47	         6551.49	        -330.981
     622	 1.99204	 1.12584	        -6896.04	         6564.99	        -331.051
     623	 1.99498	 1.11382	        -6905.66	         6574.66	        -331.004
     624	  1.9968	 1.10489	         -6911.6	         6580.69	        -330.917
     625	 1.99786	 1.09814	        -6914.98	         6584.16	        -330.818
     626	 1.99858	 1.09236	        -6917.23	         6586.52	         -330.71
     627	 1.99939	 1.08625	        -6919.87	         6589.21	        -330.658
     628	  2.0005	 1.07927	        -6923.58	         6592.88	        -330.698
     629	 2.00176	 1.07191	        -6927.77	         6597.01	        -330.756
     630	  2.0029	 1.06497	        -6931.55	         6600.77	        -330.779
     631	 2.00378	 1.05891	        -6934.47	         6603.66	        -330.813
     632	 2.00421	 1.05423	        -6935.97	         6605.07	        -330.901
     633	 2.00384	 1.05195	        -6934.89	         6603.88	         -331.01
     634	 2.00234	  1.0531	        -6929.95	         6598.93	        -331.019
     635	 1.99985	 1.05729	        -6921.51	         6590.71	        -330.797
     636	 1.99738	  1.0615	        -6913.07	         6582.59	        -330.477
     637	 1.99622	 1.06183	        -6909.16	         6578.77	         -330.39
     638	 1.99675	 1.05723	        -6911.03	         6580.49	        -330.536
     639	 1.99835	 1.04962	        -6916.47	         6585.79	        -330.674
     640	 2.00028	  1.0413	        -6922.91	         6592.14	        -330.762
     641	 2.00192	 1.03408	        -6928.38	         6597.53	        -330.853
     642	 2.00274	 1.02959	        -6931.15	         6600.24	        -330.913
     643	 2.00245	 1.02878	        -6930.16	         6599.27	        -330.891
     644	 2.00114	 1.03139	        -6925.77	         6594.97	        -330.801
     645	 1.99927	 1.03605	        -6919.52	         6588.82	        -330.698
     646	 1.99742	 1.04103	        -6913.35	         6582.71	         -330.64
     647	 1.99601	   1.045	        -6908.69	         6578.06	        -330.637
     648	 1.99528	 1.04722	        -6906.27	         6575.65	         -330.62
     649	 1.99547	 1.04695	        -6906.86	         6576.29	        -330.564
     650	 1.99687	 1.04333	        -6911.44	         6580.89	        -330.547
     651	 1.99942	 1.03638	        -6920.01	         6589.32	        -330.692
     652	 2.00236	 1.02836	        -6929.98	         6598.98	        -330.993
     653	 2.00428	  1.0234	        -6936.54	         6605.32	        -331.216
     654	 2.00412	 1.02471	        -6935.97	         6604.78	        -331.192
     655	 2.00179	 1.03244	        -6928.12	         6597.13	        -330.987
     656	 1.99808	 1.04427	        -6915.66	         6584.89	        -330.774
     657	 1.99391	 1.05744	        -6901.78	         6571.13	        -330.647
     658	 1.98995	 1.06991	        -6888.69	         6558.11	        -330.584
     659	 1.98665	 1.08039	        -6877.77	         6547.22	        -330.553
     660	 1.98424	 1.08805	        -6869.85	         6539.28	        -330.574
     661	 1.98275	 1.09274	        -6864.98	         6534.36	        -330.619
     662	 1.98209	 1.09465	        -6862.82	         6532.21	        -330.611
     663	 1.98236	 1.09347	        -6863.64	          6533.1	        -330.537
     664	 1.98384	 1.08832	        -6868.43	         6537.97	        -330.462
     665	 1.98677	 1.07847	        -6878.06	         6547.61	        -330.447
     666	 1.99108	 1.06417	        -6892.34	         6561.81	        -330.531
     667	 1.99627	 1.04698	        -6909.61	         6578.93	        -330.681
     668	 2.00158	 1.02936	        -6927.24	         6596.42	        -330.816
     669	 2.00629	 1.01361	        -6942.82	         6611.93	        -330.885
     670	 2.00999	 1.00112	           -6955	         6624.13	        -330.869
     671	 2.01269	0.992062	         -6963.8	         6633.05	        -330.754
     672	 2.01483	0.985336	        -6970.69	          6640.1	        -330.592
     673	 2.01698	0.979335	        -6977.69	         6647.16	        -330.529
     674	 2.01928	0.973635	        -6985.39	         6654.76	        -330.638
     675	 2.02125	0.969756	        -6992.06	         6661.24	        -330.824
     676	 2.02209	0.970026	        -6994.96	         6664.01	         -330.95
     677	  2.0213	0.975888	        -6992.38	         6661.42	        -330.957
     678	 2.01893	0.987129	        -6984.48	         6653.61	        -330.877
     679	 2.01546	 1.00221	        -6972.92	         6642.17	        -330.751
     680	 2.01163	 1.01887	        -6960.15	         6629.53	        -330.619
     681	 2.00817	 1.03476	        -6948.69	         6618.13	         -330.56
     682	 2.00549	 1.04847	        -6939.95	         6609.32	        -330.637
     683	 2.00343	 1.06031	        -6933.35	         6602.53	        -330.826
     684	 2.00136	 1.07199	         -6926.7	         6595.68	         -331.02
     685	 1.99862	 1.08528	        -6917.77	         6586.67	        -331.097
     686	 1.99507	 1.10056	        -6905.98	         6574.97	        -331.017
     687	 1.99119	 1.11629	        -6893.02	         6562.19	        -330.834
     688	 1.98788	 1.12982	        -6881.93	         6551.26	        -330.667
     689	 1.98586	  1.1389	        -6875.26	         6544.62	        -330.635
     690	 1.98527	 1.14315	        -6873.41	         6542.66	        -330.753
     691	 1.98554	  1.1442	        -6874.45	         6543.55	        -330.897
     692	 1.98595	 1.14419	        -6875.86	         6544.92	        -330.947
     693	 1.98614	 1.14418	         -6876.4	         6545.53	        -330.873
     694	 1.98625	 1.14371	         -6876.6	         6545.89	         -330.71
     695	 1.98684	 1.14113	        -6878.38	         6547.85	        -330.531
     696	 1.98859	 1.13447	        -6884.02	         6553.62	        -330.398
     697	   1.992	 1.12239	        -6895.21	         6564.86	        -330.346
     698	 1.99718	 1.10465	        -6912.34	         6581.92	        -330.424
     699	 2.00364	 1.08282	        -6933.85	         6603.22	        -330.626
     700	 2.01039	 1.06006	        -6956.32	         6625.46	        -330.855
     701	 2.01627	 1.03996	        -6975.84	         6644.82	        -331.027
     702	 2.02036	 1.02537	        -6989.39	          6658.3	         -331.09
     703	 2.02225	 1.01764	         -6995.6	         6664.53	        -331.064
     704	 2.02193	 1.01683	        -6994.53	         6663.48	        -331.047
     705	 2.01951	 1.02261	        -6986.56	         6655.52	        -331.034
     706	 2.01528	 1.03419	        -6972.46	         6641.57	        -330.887
     707	 2.01013	 1.04891	        -6955.15	         6624.59	        -330.559
     708	 2.00563	 1.06205	        -6940.03	         6609.77	        -330.263
     709	 2.00305	 1.06963	        -6931.61	         6601.26	        -330.353
     710	 2.00212	 1.07234	         -6928.9	         6598.19	        -330.713
     711	 2.00148	 1.07422	        -6926.99	         6596.08	        -330.906
     712	 2.00027	 1.07767	        -6922.94	         6592.09	        -330.843
     713	  1.9987	 1.08194	        -6917.57	         6586.93	        -330.642
     714	 1.99765	 1.08446	        -6913.91	         6583.46	        -330.451
     715	 1.99789	 1.08291	        -6914.73	         6584.26	         -330.47
     716	 1.99933	 1.07756	        -6919.71	         6589.02	        -330.693
     717	 2.00108	 1.07119	        -6925.62	         6594.77	        -330.847
     718	 2.00237	 1.06601	        -6929.88	         6599.02	        -330.858
     719	 2.00299	 1.06256	         -6931.9	         6601.07	        -330.836
     720	 2.00302	 1.06064	        -6931.98	         6601.18	        -330.798
     721	 2.00271	  1.0596	        -6930.87	         6600.15	        -330.717
     722	 2.00244	 1.05832	        -6929.92	         6599.25	        -330.673
     723	 2.00239	 1.05624	        -6929.83	          6599.1	        -330.732
     724	 2.00241	 1.05399	        -6929.91	         6599.16	        -330.749
     725	 2.00246	 1.05184	        -6929.92	         6599.31	        -330.614
     726	 2.00299	 1.04847	        -6931.53	         6601.08	        -330.444
     727	 2.00464	 1.04214	        -6936.89	         6606.49	        -330.394
     728	 2.00754	 1.03252	        -6946.57	         6616.06	        -330.503
     729	  2.0112	 1.02119	        -6958.85	         6628.13	        -330.722
     730	 2.01462	 1.01115	        -6970.36	          6639.4	        -330.957
     731	 2.01677	 1.00548	        -6977.54	         6646.49	         -331.05
     732	 2.01719	 1.00555	        -6978.84	         6647.86	        -330.977
     733	 2.01611	 1.01054	        -6975.16	         6644.31	        -330.858
     734	 2.01408	 1.01879	        -6968.37	         6637.61	        -330.761
     735	 2.01165	 1.02858	        -6960.28	         6629.62	        -330.666
     736	  2.0094	 1.03819	        -6952.77	         6622.19	        -330.574
     737	 2.00781	 1.04608	        -6947.52	         6616.94	        -330.572
     738	 2.00693	 1.05198	        -6944.78	         6614.04	        -330.741
     739	 2.00608	  1.0578	         -6942.3	         6611.25	        -331.054
     740	   2.004	 1.06714	         -6935.8	         6604.41	        -331.391
     741	 1.99949	 1.08347	        -6921.07	         6589.55	        -331.525
     742	  1.9924	 1.10721	        -6897.39	         6566.16	        -331.228
     743	 1.98441	 1.13333	        -6870.45	         6539.84	        -330.611
     744	 1.97831	 1.15335	        -6849.97	         6519.72	        -330.255
     745	 1.97582	 1.16207	        -6841.84	         6511.53	        -330.306
     746	 1.97689	 1.15976	        -6845.57	         6515.07	        -330.498
     747	 1.98053	 1.14933	        -6857.76	         6527.05	        -330.715
     748	 1.98551	  1.1344	        -6874.36	         6543.45	        -330.905
     749	  1.9907	 1.11838	        -6891.63	         6560.57	        -331.056
     750	 1.99523	 1.10404	        -6906.63	          6575.5	         -331.13
     751	 1.99862	 1.09296	        -6917.79	         6586.67	        -331.119
     752	 2.00081	 1.08542	        -6924.97	         6593.89	        -331.073
     753	   2.002	 1.08095	        -6928.83	         6597.82	        -331.019
     754	 2.00249	 1.07875	        -6930.39	         6599.41	        -330.979
     755	 2.00249	 1.07812	        -6930.44	         6599.42	        -331.021
     756	 2.00196	 1.07921	        -6928.76	         6597.68	        -331.076
     757	  2.0009	 1.08211	         -6925.1	         6594.17	        -330.934
     758	 1.99993	 1.08492	        -6921.66	         6590.97	        -330.687
     759	 1.99996	 1.08477	         -6921.7	         6591.08	        -330.618
     760	  2.0013	 1.08082	        -6926.13	         6595.49	        -330.637
     761	 2.00381	 1.07351	        -6934.37	         6603.76	         -330.61
     762	 2.00731	 1.06325	        -6945.97	          6615.3	        -330.677
     763	 2.01125	 1.05165	        -6959.15	         6628.27	        -330.873
     764	 2.01461	 1.04173	         -6970.4	         6639.38	        -331.025
     765	 2.01657	 1.03603	        -6976.86	         6645.83	        -331.036
     766	 2.01688	 1.03527	        -6977.79	         6646.84	        -330.954
     767	 2.01576	 1.03878	        -6974.03	         6643.16	        -330.875
     768	 2.01354	 1.04564	        -6966.71	         6635.84	        -330.873
     769	 2.01032	 1.05553	        -6956.17	         6625.24	        -330.926
     770	 2.00611	 1.06849	        -6942.25	         6611.34	        -330.908
     771	 2.00122	 1.08355	        -6925.98	         6595.24	        -330.743
     772	 1.99658	   1.098	        -6910.44	         6579.93	        -330.505
     773	 1.99332	 1.10839	        -6899.58	          6569.2	        -330.386
     774	 1.99202	 1.11294	        -6895.43	          6564.9	         -330.53
     775	 1.99216	 1.11316	        -6896.18	         6565.36	        -330.816
     776	 1.99264	  1.1123	        -6897.93	         6566.96	        -330.967
     777	 1.99284	 1.11221	        -6898.53	         6567.62	        -330.904
     778	 1.99297	 1.11223	        -6898.81	         6568.04	        -330.773
     779	 1.99356	 1.11077	         -6900.7	         6569.99	        -330.707
     780	 1.99495	 1.10694	        -6905.25	         6574.57	        -330.688
     781	  1.9972	 1.10062	        -6912.69	            6582	         -330.69
     782	 2.00019	 1.09225	        -6922.59	         6591.83	        -330.766
     783	  2.0034	 1.08329	        -6933.37	         6602.44	        -330.933
     784	 2.00602	 1.07629	        -6942.17	         6611.06	        -331.111
     785	 2.00721	 1.07373	        -6946.15	         6614.96	        -331.193
     786	 2.00658	 1.07674	        -6944.03	          6612.9	        -331.127
     787	 2.00447	 1.08436	         -6936.9	         6605.95	         -330.94
     788	 2.00177	 1.09393	        -6927.76	         6597.05	        -330.716
     789	 1.99952	 1.10229	        -6920.21	         6589.65	        -330.564
     790	 1.99844	 1.10728	        -6916.63	         6586.08	        -330.554
     791	 1.99859	 1.10863	         -6917.2	         6586.56	        -330.644
     792	 1.99952	 1.10759	        -6920.38	         6589.63	        -330.756
     793	 2.00065	 1.10583	        -6924.18	         6593.36	        -330.821
     794	  2.0016	 1.10448	        -6927.27	         6596.48	        -330.796
     795	 2.00236	 1.10355	        -6929.72	         6599.01	        -330.709
     796	 2.00319	 1.10233	        -6932.42	         6601.73	         -330.69
     797	 2.00409	  1.1008	        -6935.48	         6604.71	        -330.777
     798	 2.00472	 1.10009	        -6937.64	         6606.77	        -330.875
     799	 2.00467	  1.1014	        -6937.54	          6606.6	         -330.94
     800	 2.00377	 1.10525	        -6934.56	         6603.64	        -330.918
     801	  2.0023	 1.11091	        -6929.58	         6598.81	        -330.772
     802	 2.00096	 1.11624	        -6925.08	         6594.38	          -330.7
     803	 2.00005	 1.12018	         -6922.3	         6591.39	        -330.909
     804	 1.99889	 1.12474	         -6918.7	         6587.55	        -331.155
     805	 1.99665	 1.13238	        -6911.27	         6580.17	        -331.101
     806	  1.9936	  1.1422	        -6900.93	         6570.11	        -330.817
     807	 1.99081	 1.15082	        -6891.59	         6560.92	        -330.675
     808	  1.9889	 1.15636	        -6885.37	         6554.65	        -330.719
     809	 1.98779	 1.15923	        -6881.72	         6550.99	        -330.724
     810	 1.98734	 1.15976	        -6880.19	         6549.49	        -330.697
     811	 1.98751	 1.15801	        -6880.76	         6550.04	        -330.713
     812	 1.98817	 1.15436	        -6882.96	         6552.23	        -330.733
     813	 1.98921	 1.14921	        -6886.37	         6555.67	        -330.701
     814	 1.99072	 1.14234	        -6891.28	         6560.63	        -330.644
     815	 1.99284	 1.13333	        -6898.27	          6567.6	        -330.664
     816	 1.99542	 1.12264	        -6906.89	         6576.13	        -330.761
     817	 1.99805	 1.11167	        -6915.61	         6584.78	        -330.835
     818	 2.00031	 1.10168	         -6923.1	         6592.24	        -330.865
     819	 2.00203	  1.0933	        -6928.72	          6597.9	        -330.817
     820	  2.0034	 1.08615	        -6933.07	         6602.41	        -330.662
     821	 2.00499	 1.07862	        -6938.19	         6607.65	         -330.54
     822	 2.00723	 1.06949	        -6945.63	         6615.05	        -330.577
     823	 2.01002	 1.05928	        -6954.91	         6624.24	        -330.677
     824	 2.01289	 1.04942	        -6964.49	          6633.7	        -330.791
     825	 2.01525	 1.04165	        -6972.44	         6641.47	        -330.973
     826	  2.0163	 1.03837	        -6976.07	         6644.93	        -331.141
     827	 2.01537	  1.0416	        -6973.05	         6641.86	        -331.192
     828	 2.01232	 1.05166	        -6962.93	         6631.82	        -331.109
     829	 2.00769	 1.06692	        -6947.47	         6616.57	        -330.904
     830	 2.00259	 1.08405	        -6930.38	         6599.74	        -330.643
     831	  1.9983	 1.09908	        -6916.08	          6585.6	        -330.486
     832	 1.99561	 1.10952	        -6907.32	         6576.76	        -330.569
     833	 1.99433	 1.11589	        -6903.34	         6572.54	        -330.799
     834	  1.9936	 1.12076	        -6901.08	         6570.12	        -330.964
     835	 1.99268	 1.12626	        -6898.09	         6567.08	        -331.017
     836	 1.99119	 1.13338	        -6893.28	         6562.19	        -331.086
     837	 1.98875	 1.14325	        -6885.35	         6554.15	        -331.209
     838	 1.98487	 1.15727	        -6872.57	         6541.37	        -331.206
     839	 1.97963	  1.1752	        -6855.06	         6524.09	        -330.964
     840	 1.97403	 1.19389	        -6836.27	         6505.64	        -330.629
     841	 1.96947	 1.20903	        -6821.01	         6490.59	        -330.423
     842	 1.96685	 1.21776	        -6812.37	         6481.98	        -330.386
     843	 1.96641	 1.21939	        -6810.93	         6480.52	        -330.413
     844	   1.968	 1.21429	        -6816.18	         6485.75	        -330.434
     845	 1.97141	 1.20305	        -6827.46	         6496.98	        -330.481
     846	 1.97629	 1.18675	        -6843.68	         6513.07	        -330.608
     847	   1.982	  1.1674	         -6862.7	          6531.9	        -330.803
     848	 1.98765	 1.14779	        -6881.53	         6550.53	        -330.998
     849	 1.99241	 1.13054	        -6897.33	         6566.21	        -331.116
     850	 1.99581	 1.11715	        -6908.52	          6577.4	        -331.116
     851	  1.9979	 1.10749	        -6915.33	         6584.29	        -331.043
     852	 1.99908	 1.10042	        -6919.16	          6588.2	        -330.959
     853	 1.99989	 1.09446	        -6921.69	         6590.84	         -330.85
     854	 2.00093	 1.08785	        -6924.99	         6594.27	        -330.712
     855	 2.00287	  1.0787	         -6931.3	         6600.67	        -330.628
     856	 2.00607	 1.06603	        -6941.89	         6611.21	        -330.683
     857	 2.01024	 1.05081	        -6955.79	         6624.96	        -330.835
     858	 2.01458	 1.03554	        -6970.25	         6639.27	         -330.98
     859	 2.01826	  1.0228	        -6982.38	         6651.41	        -330.978
     860	 2.02098	 1.01356	        -6991.23	         6660.36	        -330.863
     861	 2.02289	  1.0073	        -6997.48	         6666.66	        -330.817
     862	 2.02404	 1.00389	        -7001.33	         6670.45	         -330.88
     863	  2.0242	 1.00401	         -7001.9	         6670.97	        -330.932
     864	 2.02328	 1.00792	        -6998.78	         6667.95	        -330.836
     865	 2.02184	 1.01399	        -6993.81	         6663.19	         -330.62
     866	 2.02078	 1.01941	        -6990.26	         6659.71	        -330.555
     867	 2.02036	 1.02332	        -6989.11	         6658.32	        -330.787
     868	 2.01971	 1.02831	        -6987.22	         6656.18	        -331.035
     869	 2.01788	 1.03721	        -6981.15	         6650.13	        -331.015
     870	 2.01485	 1.04985	           -6971	         6640.15	        -330.857
     871	 2.01117	 1.06433	        -6958.88	         6628.03	         -330.85
     872	 2.00701	 1.08009	        -6945.23	          6614.3	        -330.927
     873	 2.00225	 1.09735	         -6929.5	         6598.62	        -330.875
     874	 1.99729	 1.11481	        -6912.94	         6582.27	        -330.666
     875	 1.99312	  1.1294	        -6898.99	         6568.55	        -330.437
     876	 1.99077	 1.13802	        -6891.17	         6560.78	        -330.385
     877	 1.99041	 1.14002	        -6890.21	         6559.63	        -330.582
     878	 1.99123	 1.13791	        -6893.14	          6562.3	        -330.835
     879	 1.99205	 1.13509	        -6895.96	         6565.01	        -330.951
     880	 1.99222	 1.13347	        -6896.51	         6565.59	        -330.922
     881	 1.99178	 1.13297	        -6894.92	         6564.13	        -330.797
     882	 1.99124	 1.13216	        -6892.97	         6562.34	        -330.633
     883	 1.99131	 1.12902	        -6893.08	         6562.59	        -330.496
     884	 1.99261	  1.1219	        -6897.28	         6566.86	        -330.418
     885	 1.99538	 1.11015	        -6906.44	         6575.98	        -330.462
     886	 1.99929	  1.0948	        -6919.51	         6588.89	        -330.619
     887	 2.00357	 1.07834	        -6933.76	         6602.97	        -330.783
     888	 2.00735	 1.06341	        -6946.32	         6615.43	        -330.889
     889	 2.01008	 1.05177	        -6955.32	         6624.42	        -330.901
     890	 2.01167	 1.04384	        -6960.47	         6629.66	        -330.806
     891	 2.01252	 1.03856	        -6963.12	         6632.46	        -330.659
     892	 2.01322	 1.03421	        -6965.37	         6634.78	        -330.587
     893	 2.01407	 1.02997	        -6968.23	         6637.57	        -330.659
     894	 2.01477	 1.02668	        -6970.68	         6639.88	          -330.8
     895	 2.01474	 1.02603	         -6970.7	          6639.8	        -330.899
     896	 2.01359	 1.02916	        -6966.91	         6636.01	        -330.896
     897	 2.01139	 1.03583	        -6959.53	         6628.74	        -330.787
     898	 2.00867	 1.04441	        -6950.44	         6619.78	        -330.659
     899	 2.00609	 1.05289	         -6941.9	          6611.3	        -330.601
     900	 2.00408	 1.06004	        -6935.26	         6604.67	        -330.581
     901	 2.00284	 1.06526	        -6931.15	         6600.57	        -330.587
     902	 2.00233	 1.06853	        -6929.59	          6598.9	        -330.692
     903	 2.00212	 1.07111	        -6929.09	         6598.21	        -330.883
     904	 2.00146	 1.07523	        -6927.05	         6596.02	        -331.031
     905	 1.99975	  1.0826	        -6921.47	          6590.4	         -331.07
     906	 1.99686	 1.09358	        -6911.94	         6580.87	        -331.066
     907	 1.99292	  1.1077	        -6898.92	         6567.87	        -331.052
     908	 1.98823	 1.12406	        -6883.37	         6552.43	        -330.939
     909	 1.98357	 1.14042	        -6867.77	         6537.06	        -330.708
     910	 1.97995	 1.15357	        -6855.81	         6525.13	        -330.685
     911	 1.97747	 1.16298	        -6847.99	         6516.96	        -331.031
     912	 1.97488	 1.17238	        -6839.74	         6508.42	        -331.325
     913	 1.97101	 1.18513	        -6826.96	         6495.69	        -331.271
     914	 1.96607	  1.2005	        -6810.37	         6479.41	        -330.963
     915	 1.96136	 1.21453	        -6794.53	         6463.88	        -330.649
     916	  1.9583	 1.22303	        -6784.27	         6453.79	        -330.479
     917	 1.95777	 1.22344	        -6782.46	         6452.06	        -330.403
     918	 1.96015	 1.21474	        -6790.25	         6459.88	        -330.373
     919	 1.96542	 1.19694	        -6807.68	         6477.26	        -330.414
     920	 1.97315	 1.17146	        -6833.29	         6502.72	        -330.571
     921	 1.98227	  1.1415	        -6863.64	          6532.8	        -330.847
     922	 1.99126	 1.11183	        -6893.53	          6562.4	        -331.133
     923	 1.99851	  1.0873	        -6917.62	          6586.3	        -331.314
     924	 2.00297	 1.07123	        -6932.34	         6600.99	        -331.349
     925	 2.00433	 1.06461	        -6936.71	         6605.49	        -331.222
     926	 2.00318	  1.0659	        -6932.63	         6601.69	        -330.942
     927	 2.00083	 1.07127	        -6924.56	         6593.95	        -330.616
     928	 1.99879	 1.07626	        -6917.69	         6587.21	        -330.474
     929	 1.99779	 1.07863	        -6914.53	         6583.93	        -330.598
     930	 1.99754	 1.07932	        -6913.86	         6583.09	        -330.766
     931	 1.99737	 1.08017	        -6913.41	         6582.55	        -330.856
     932	 1.99684	 1.08231	        -6911.75	          6580.8	        -330.945
     933	 1.99556	 1.08671	        -6907.64	         6576.58	        -331.055
     934	 1.99319	 1.09427	        -6899.85	         6568.77	        -331.081
     935	 1.98984	 1.10463	        -6888.64	         6557.73	        -330.917
     936	 1.98643	 1.11504	         -6877.1	          6546.5	        -330.598
     937	  1.9844	 1.12122	        -6870.24	         6539.82	        -330.417
     938	 1.98454	 1.12081	        -6870.84	         6540.26	        -330.588
     939	 1.98621	 1.11581	        -6876.63	         6545.76	        -330.865
     940	  1.9882	 1.10991	        -6883.31	         6552.33	        -330.981
     941	 1.98978	 1.10528	        -6888.47	         6557.53	        -330.936
     942	 1.99082	 1.10224	        -6891.84	         6560.96	        -330.881
     943	 1.99133	 1.10077	        -6893.54	         6562.65	        -330.888
     944	  1.9912	 1.10126	         -6893.1	          6562.2	        -330.899
     945	 1.99035	 1.10392	        -6890.26	          6559.4	        -330.853
     946	   1.989	 1.10812	        -6885.73	         6554.96	        -330.771
     947	 1.98755	 1.11265	        -6880.92	          6550.2	        -330.718
     948	 1.98635	 1.11657	        -6876.96	         6546.25	        -330.711
     949	 1.98557	 1.11943	        -6874.37	         6543.66	        -330.707
     950	  1.9853	 1.12101	        -6873.47	         6542.76	        -330.708
     951	 1.98553	 1.12134	        -6874.31	         6543.52	        -330.783
     952	  1.9859	 1.12145	        -6875.74	         6544.76	        -330.979
     953	  1.9856	 1.12373	        -6874.96	         6543.74	        -331.215
     954	 1.98369	 1.13079	        -6868.78	         6537.48	        -331.298
     955	 1.97997	 1.14322	        -6856.33	         6525.22	        -331.109
     956	 1.97533	 1.15822	        -6840.67	         6509.93	        -330.748
     957	 1.97135	 1.17094	        -6827.27	         6496.79	        -330.478
     958	 1.96922	 1.17765	        -6820.25	         6489.79	        -330.462
     959	 1.96912	 1.17777	        -6820.08	         6489.45	         -330.63
     960	 1.97039	 1.17312	        -6824.44	         6493.65	        -330.791
     961	 1.97235	 1.16569	        -6830.91	         6500.09	        -330.819
     962	 1.97476	 1.15614	        -6838.78	         6508.02	        -330.758
     963	 1.97771	 1.14419	         -6848.5	         6517.77	        -330.729
     964	 1.98123	 1.12995	        -6860.11	         6529.36	        -330.748
     965	 1.98512	 1.11418	        -6872.95	         6542.18	        -330.774
     966	 1.98911	 1.09784	        -6886.16	         6555.33	        -330.824
     967	 1.99283	  1.0822	        -6898.47	         6567.58	        -330.895
     968	 1.99588	 1.06864	        -6908.49	         6577.62	        -330.868
     969	 1.99825	 1.05733	        -6916.16	         6585.46	        -330.709
     970	 2.00041	 1.04699	        -6923.16	         6592.56	        -330.593
     971	 2.00266	 1.03669	        -6930.63	         6599.98	        -330.651
     972	 2.00473	 1.02731	        -6937.58	         6606.79	        -330.789
     973	 2.00606	  1.0205	        -6942.06	          6611.2	        -330.854
     974	 2.00643	 1.01694	        -6943.23	         6612.41	        -330.818
     975	 2.00603	 1.01599	        -6941.83	         6611.08	        -330.758
     976	 2.00519	  1.0166	        -6939.07	         6608.33	        -330.742
     977	 2.00416	 1.01809	        -6935.64	         6604.94	        -330.706
     978	 2.00322	 1.01969	        -6932.44	         6601.82	        -330.619
     979	 2.00272	 1.02022	        -6930.79	         6600.19	        -330.595
     980	 2.00281	 1.01931	        -6931.13	         6600.48	        -330.643
     981	  2.0033	 1.01756	        -6932.77	         6602.08	        -330.682
     982	  2.0039	 1.01574	        -6934.81	         6604.08	        -330.722
     983	 2.00434	  1.0147	        -6936.24	         6605.51	        -330.726
     984	 2.00443	 1.01495	         -6936.5	         6605.82	        -330.682
     985	 2.00419	 1.01643	        -6935.71	         6605.03	        -330.678
     986	 2.00351	 1.01947	        -6933.55	         6602.78	        -330.768
     987	 2.00199	 1.02522	        -6928.69	         6597.79	        -330.897
     988	 1.99918	 1.03508	        -6919.45	         6588.51	        -330.944
     989	 1.99503	 1.04913	        -6905.64	         6574.84	          -330.8
     990	 1.99034	 1.06504	        -6889.89	         6559.38	        -330.511
     991	 1.98647	 1.07871	         -6876.9	         6546.63	        -330.279
     992	 1.98455	 1.08676	        -6870.54	         6540.29	        -330.251
     993	 1.98484	 1.08841	        -6871.64	         6541.26	        -330.386
     994	 1.98683	 1.08517	        -6878.38	         6547.81	        -330.575
     995	 1.98964	 1.07953	        -6887.84	         6557.09	        -330.749
     996	 1.99244	 1.07396	        -6897.17	          6566.3	        -330.873
     997	 1.99459	 1.07025	        -6904.33	         6573.39	        -330.941
     998	 1.99578	 1.06936	        -6908.27	         6577.29	        -330.973
     999	  1.9959	 1.07153	         -6908.7	         6577.71	        -330.985
