    Step 	 temperature 	 pressure 	 Potential Energy 	 Kinetic Energy 	 Sum Energy

       0	 2.17063	-1.55462	        -3415.21	         3259.48	        -155.734
       1	 2.17071	-1.55136	        -3415.35	          3259.6	         -155.75
       2	  2.1709	-1.54141	        -3415.65	         3259.88	        -155.769
       3	 2.17104	 -1.5243	        -3415.88	         3260.08	        -155.803
       4	 2.17084	-1.49923	        -3415.64	         3259.79	        -155.854
       5	  2.1699	-1.46495	         -3414.3	         3258.38	        -155.927
       6	 2.16763	-1.41979	           -3411	         3254.97	        -156.025
       7	 2.16325	-1.36149	        -3404.55	          3248.4	        -156.153
       8	 2.15574	-1.28726	        -3393.45	         3237.14	        -156.313
       9	 2.14388	-1.19378	        -3375.85	         3219.35	        -156.501
      10	 2.12629	-1.07752	        -3349.66	         3192.96	        -156.696
      11	 2.10169	-0.935393	        -3312.92	         3156.06	        -156.856
      12	  2.0693	-0.766029	         -3264.4	         3107.48	        -156.923
      13	  2.0294	-0.571332	        -3204.46	         3047.62	        -156.842
      14	 1.98372	-0.357734	        -3135.71	         2979.11	          -156.6
      15	 1.93556	-0.13622	         -3063.1	         2906.86	        -156.243
      16	 1.88917	0.0792838	        -2993.14	         2837.27	        -155.867
      17	 1.84881	0.274966	        -2932.33	         2776.74	        -155.591
      18	  1.8176	0.440588	        -2885.42	         2729.93	        -155.487
      19	 1.79683	0.571541	         -2854.3	         2698.76	        -155.539
      20	 1.78606	0.668541	        -2838.29	         2682.61	        -155.683
      21	 1.78377	 0.73578	        -2835.04	         2679.19	        -155.855
      22	 1.78802	0.779012	        -2841.57	         2685.55	        -156.023
      23	 1.79676	0.804349	        -2854.84	         2698.66	        -156.179
      24	 1.80812	0.817662	        -2872.01	          2715.7	        -156.314
      25	 1.82048	0.824118	        -2890.66	         2734.25	        -156.411
      26	 1.83271	0.827577	        -2909.03	         2752.59	        -156.449
      27	 1.84428	 0.83002	        -2926.38	         2769.95	        -156.429
      28	 1.85527	0.831677	        -2942.83	         2786.43	        -156.405
      29	  1.8658	0.832478	        -2958.67	         2802.22	        -156.452
      30	 1.87546	0.833912	        -2973.29	         2816.72	        -156.573
      31	 1.88337	0.838923	        -2985.25	         2828.59	        -156.659
      32	 1.88908	0.849145	        -2993.75	         2837.15	        -156.594
      33	 1.89347	0.862176	        -3000.16	         2843.73	         -156.43
      34	 1.89813	0.873263	         -3007.1	         2850.71	        -156.381
      35	 1.90373	0.880529	        -3015.57	         2859.11	        -156.459
      36	 1.90983	 0.88548	        -3024.78	         2868.26	        -156.517
      37	 1.91594	0.889509	        -3033.98	         2877.44	        -156.537
      38	 1.92192	0.893032	        -3042.96	          2886.4	         -156.56
      39	 1.92768	 0.89628	        -3051.62	         2895.04	        -156.577
      40	  1.9333	0.899135	        -3060.02	         2903.47	         -156.55
      41	  1.9392	0.900433	        -3068.82	         2912.33	        -156.491
      42	 1.94596	0.898468	        -3078.95	         2922.47	        -156.477
      43	  1.9537	0.892958	        -3090.63	         2934.08	        -156.547
      44	 1.96177	0.885957	        -3102.83	         2946.19	        -156.648
      45	 1.96917	0.880563	           -3114	         2957.28	        -156.723
      46	 1.97507	0.879298	        -3122.89	         2966.13	        -156.753
      47	 1.97912	0.883379	        -3128.95	         2972.21	         -156.74
      48	  1.9814	0.892708	        -3132.33	         2975.62	        -156.707
      49	 1.98221	0.906418	        -3133.52	         2976.84	        -156.685
      50	 1.98185	0.923654	           -3133	         2976.31	        -156.695
      51	 1.98043	0.944089	         -3130.9	         2974.17	        -156.728
      52	 1.97795	0.967618	        -3127.18	         2970.45	        -156.735
      53	 1.97473	0.993221	         -3122.3	         2965.63	        -156.672
      54	 1.97169	  1.0181	        -3117.63	         2961.06	         -156.58
      55	 1.96985	 1.03895	        -3114.85	         2958.29	        -156.559
      56	 1.96957	 1.05454	        -3114.51	         2957.88	         -156.63
      57	 1.97031	  1.0663	        -3115.73	         2958.99	        -156.748
      58	 1.97103	  1.0771	        -3116.92	         2960.06	         -156.86
      59	 1.97081	 1.08957	        -3116.63	         2959.74	         -156.89
      60	 1.96954	 1.10405	        -3114.64	         2957.84	        -156.803
      61	  1.9681	 1.11795	        -3112.37	         2955.68	        -156.696
      62	 1.96753	 1.12817	        -3111.49	         2954.81	        -156.673
      63	  1.9682	 1.13374	        -3112.52	         2955.82	        -156.693
      64	 1.97001	 1.13512	        -3115.25	         2958.54	        -156.709
      65	 1.97268	 1.13312	        -3119.31	         2962.54	        -156.765
      66	 1.97553	  1.1297	        -3123.69	         2966.82	        -156.867
      67	 1.97759	 1.12787	        -3126.85	         2969.91	        -156.935
      68	 1.97815	 1.12975	        -3127.69	         2970.75	        -156.938
      69	 1.97711	 1.13565	         -3126.1	         2969.19	        -156.905
      70	 1.97483	 1.14459	        -3122.62	         2965.77	        -156.846
      71	 1.97196	 1.15475	        -3118.26	         2961.47	        -156.794
      72	 1.96911	 1.16433	           -3114	          2957.2	        -156.806
      73	 1.96641	 1.17298	        -3110.02	         2953.14	        -156.877
      74	 1.96351	 1.18166	        -3105.75	         2948.79	        -156.956
      75	    1.96	 1.19143	        -3100.53	         2943.52	        -157.012
      76	 1.95575	 1.20244	        -3094.14	         2937.15	        -156.985
      77	 1.95152	  1.2124	        -3087.63	         2930.81	        -156.818
      78	  1.9492	 1.21561	        -3083.91	         2927.32	         -156.59
      79	 1.95096	 1.20549	        -3086.46	         2929.96	        -156.493
      80	 1.95767	 1.17958	        -3096.64	         2940.04	        -156.608
      81	 1.96816	 1.14171	        -3112.59	         2955.76	        -156.827
      82	 1.98006	 1.09921	        -3130.63	         2973.62	        -157.015
      83	  1.9912	 1.05895	        -3147.43	         2990.33	        -157.103
      84	 2.00036	 1.02491	        -3161.15	         3004.07	        -157.085
      85	 2.00736	0.997988	        -3171.59	         3014.56	        -157.024
      86	 2.01258	0.977347	        -3179.35	          3022.4	        -156.951
      87	  2.0166	0.961525	        -3185.31	         3028.43	        -156.879
      88	 2.01989	0.949141	        -3190.24	         3033.36	        -156.881
      89	 2.02225	0.940694	        -3193.85	          3036.9	        -156.956
      90	 2.02296	0.938314	        -3194.92	         3037.96	        -156.956
      91	 2.02186	0.942338	        -3193.16	         3036.31	        -156.851
      92	  2.0196	0.950528	        -3189.69	         3032.93	        -156.764
      93	 2.01683	0.960798	         -3185.5	         3028.77	         -156.73
      94	 2.01382	0.972219	        -3180.96	         3024.26	        -156.703
      95	 2.01077	0.984059	        -3176.35	         3019.68	         -156.67
      96	 2.00795	0.995378	         -3172.1	         3015.45	        -156.645
      97	  2.0056	 1.00541	        -3168.57	         3011.92	        -156.646
      98	 2.00374	 1.01401	         -3165.8	         3009.14	        -156.664
      99	 2.00229	  1.0215	        -3163.63	         3006.95	        -156.673
     100	 2.00114	 1.02813	        -3161.91	         3005.24	        -156.672
     101	 2.00024	 1.03405	        -3160.58	         3003.89	        -156.691
     102	 1.99932	 1.03997	        -3159.25	         3002.51	        -156.737
     103	 1.99793	  1.0472	        -3157.19	         3000.42	        -156.769
     104	 1.99577	 1.05656	        -3153.92	         2997.18	        -156.742
     105	  1.9931	 1.06719	        -3149.82	         2993.17	        -156.645
     106	 1.99084	 1.07628	         -3146.3	         2989.78	        -156.517
     107	 1.99018	 1.08026	        -3145.22	         2988.79	        -156.426
     108	 1.99197	 1.07662	         -3147.9	         2991.48	        -156.421
     109	 1.99626	  1.0653	        -3154.42	         2997.91	        -156.506
     110	 2.00224	 1.04876	        -3163.51	         3006.88	        -156.634
     111	  2.0087	 1.03074	        -3173.31	         3016.57	        -156.742
     112	 2.01459	 1.01451	         -3182.2	         3025.42	        -156.782
     113	  2.0195	 1.00153	        -3189.54	         3032.77	        -156.765
     114	 2.02347	0.991739	        -3195.49	         3038.73	        -156.769
     115	 2.02644	0.985427	        -3200.03	         3043.18	        -156.849
     116	 2.02778	0.984555	        -3202.15	          3045.2	        -156.955
     117	 2.02679	0.991369	        -3200.67	         3043.72	        -156.956
     118	 2.02372	 1.00526	        -3195.93	         3039.11	        -156.817
     119	 2.01984	  1.0223	        -3190.03	         3033.29	        -156.735
     120	 2.01589	 1.04017	         -3184.2	         3027.36	        -156.838
     121	 2.01112	 1.06106	        -3177.18	         3020.21	        -156.973
     122	 2.00439	 1.08822	        -3167.13	         3010.11	        -157.017
     123	 1.99534	 1.12242	        -3153.49	         2996.54	        -156.958
     124	 1.98463	 1.16141	        -3137.31	         2980.47	        -156.838
     125	  1.9736	 1.20101	        -3120.62	         2963.92	        -156.699
     126	 1.96378	  1.2364	        -3105.79	          2949.2	        -156.585
     127	  1.9565	  1.2635	        -3094.81	         2938.27	        -156.539
     128	 1.95238	 1.28024	        -3088.67	         2932.09	        -156.578
     129	  1.9512	 1.28708	        -3087.03	         2930.33	        -156.696
     130	 1.95196	 1.28692	        -3088.31	         2931.46	        -156.852
     131	 1.95326	 1.28377	        -3090.36	         2933.41	        -156.948
     132	 1.95424	  1.2802	         -3091.8	         2934.89	        -156.918
     133	 1.95511	 1.27559	        -3092.98	         2936.19	        -156.791
     134	 1.95689	 1.26693	        -3095.51	         2938.85	         -156.66
     135	 1.96061	 1.25123	        -3101.03	         2944.44	        -156.593
     136	 1.96669	 1.22738	        -3110.16	         2953.56	          -156.6
     137	 1.97482	 1.19652	         -3122.4	         2965.75	         -156.65
     138	 1.98422	 1.16114	        -3136.56	         2979.85	        -156.709
     139	 1.99402	 1.12412	        -3151.32	         2994.55	        -156.768
     140	 2.00336	 1.08825	         -3165.4	         3008.57	         -156.83
     141	 2.01148	 1.05615	        -3177.64	         3020.75	        -156.887
     142	 2.01773	 1.03001	        -3187.05	         3030.13	        -156.925
     143	 2.02175	 1.01115	        -3193.08	         3036.15	         -156.93
     144	 2.02352	0.999735	        -3195.72	         3038.81	        -156.913
     145	 2.02331	0.995049	         -3195.4	         3038.49	        -156.911
     146	 2.02132	0.996403	        -3192.44	          3035.5	         -156.94
     147	 2.01765	 1.00342	        -3186.95	            3030	        -156.946
     148	 2.01274	 1.01476	         -3179.5	         3022.64	        -156.865
     149	 2.00782	  1.0267	        -3171.98	         3015.26	        -156.718
     150	 2.00453	  1.0342	        -3166.99	         3010.32	        -156.663
     151	 2.00349	 1.03517	        -3165.59	         3008.76	        -156.831
     152	  2.0034	 1.03344	        -3165.68	         3008.62	        -157.062
     153	 2.00236	 1.03469	        -3164.16	         3007.06	        -157.101
     154	 1.99998	 1.03998	        -3160.45	          3003.5	        -156.944
     155	  1.9975	 1.04549	        -3156.59	         2999.78	        -156.807
     156	 1.99613	 1.04765	         -3154.5	         2997.71	        -156.783
     157	 1.99609	 1.04588	        -3154.49	         2997.66	        -156.828
     158	 1.99684	 1.04177	        -3155.72	         2998.78	        -156.938
     159	 1.99726	 1.03857	        -3156.48	         2999.42	        -157.053
     160	 1.99639	 1.03936	        -3155.15	         2998.12	        -157.033
     161	 1.99439	 1.04375	           -3152	         2995.11	        -156.881
     162	 1.99234	 1.04836	        -3148.86	         2992.03	        -156.824
     163	 1.99055	 1.05216	        -3146.26	         2989.35	        -156.905
     164	 1.98825	 1.05754	        -3142.84	          2985.9	        -156.945
     165	 1.98487	 1.06601	        -3137.73	         2980.84	        -156.891
     166	 1.98074	 1.07648	        -3131.43	         2974.64	        -156.792
     167	 1.97672	 1.08631	         -3125.3	          2968.6	        -156.702
     168	 1.97368	 1.09286	        -3120.71	         2964.05	        -156.662
     169	  1.9721	 1.09472	        -3118.35	         2961.68	        -156.673
     170	 1.97203	 1.09178	        -3118.25	         2961.56	        -156.686
     171	 1.97343	 1.08415	        -3120.33	         2963.67	        -156.663
     172	 1.97654	 1.07128	        -3124.95	         2968.33	        -156.619
     173	  1.9816	 1.05252	        -3132.57	         2975.92	        -156.651
     174	 1.98811	 1.02944	         -3142.5	         2985.69	        -156.815
     175	 1.99447	 1.00699	        -3152.23	         2995.23	        -156.996
     176	 1.99901	0.990433	        -3159.07	         3002.04	        -157.024
     177	 2.00136	 0.98099	        -3162.46	         3005.57	         -156.89
     178	 2.00257	0.975576	        -3164.13	         3007.38	        -156.745
     179	 2.00386	 0.97059	        -3166.04	         3009.32	        -156.718
     180	 2.00552	0.965273	        -3168.59	         3011.81	        -156.781
     181	 2.00703	0.961218	        -3170.89	         3014.06	        -156.828
     182	 2.00792	0.959758	         -3172.2	          3015.4	        -156.804
     183	 2.00831	0.960507	        -3172.73	         3015.98	        -156.743
     184	 2.00863	 0.96208	        -3173.19	         3016.47	        -156.717
     185	 2.00907	0.963936	        -3173.89	         3017.13	        -156.758
     186	 2.00927	0.967097	        -3174.25	         3017.44	        -156.815
     187	 2.00877	0.972977	        -3173.52	         3016.68	        -156.847
     188	 2.00728	0.982292	        -3171.32	         3014.45	        -156.865
     189	 2.00476	0.995168	        -3167.54	         3010.66	        -156.882
     190	 2.00121	 1.01141	        -3162.24	         3005.35	        -156.888
     191	 1.99685	 1.03034	        -3155.67	          2998.8	        -156.873
     192	 1.99205	  1.0506	        -3148.45	          2991.6	        -156.842
     193	 1.98736	 1.07041	        -3141.38	         2984.57	        -156.811
     194	 1.98331	 1.08804	        -3135.29	         2978.49	        -156.797
     195	 1.98024	 1.10232	         -3130.7	         2973.89	        -156.806
     196	 1.97825	 1.11292	        -3127.75	         2970.91	        -156.838
     197	 1.97718	  1.1203	        -3126.18	         2969.29	        -156.885
     198	 1.97668	 1.12548	        -3125.47	         2968.55	        -156.927
     199	 1.97644	 1.12944	        -3125.13	         2968.19	        -156.944
     200	 1.97631	 1.13265	        -3124.93	         2967.99	         -156.94
     201	 1.97632	 1.13508	        -3124.92	         2968.01	        -156.918
     202	 1.97664	 1.13628	        -3125.37	         2968.49	        -156.883
     203	 1.97748	 1.13567	        -3126.61	         2969.74	        -156.871
     204	 1.97877	 1.13342	        -3128.59	         2971.68	        -156.914
     205	 1.97998	  1.1311	        -3130.48	          2973.5	        -156.983
     206	 1.98044	 1.13076	        -3131.18	         2974.18	        -156.999
     207	 1.97997	 1.13287	         -3130.4	         2973.49	        -156.918
     208	 1.97927	 1.13533	        -3129.23	         2972.43	        -156.798
     209	 1.97936	   1.135	        -3129.29	         2972.56	        -156.734
     210	 1.98075	  1.1303	        -3131.42	         2974.65	        -156.771
     211	 1.98303	 1.12247	        -3134.95	         2978.07	        -156.872
     212	  1.9852	 1.11458	        -3138.26	         2981.32	        -156.931
     213	 1.98655	 1.10884	        -3140.23	         2983.34	        -156.891
     214	 1.98718	 1.10501	        -3141.09	         2984.29	        -156.796
     215	 1.98772	 1.10135	        -3141.82	          2985.1	        -156.719
     216	  1.9887	 1.09642	        -3143.26	         2986.57	        -156.689
     217	 1.99025	  1.0899	         -3145.6	          2988.9	        -156.701
     218	 1.99216	 1.08251	         -3148.5	         2991.77	        -156.737
     219	 1.99403	 1.07544	        -3151.34	         2994.57	        -156.772
     220	 1.99551	 1.06971	        -3153.57	         2996.79	        -156.779
     221	 1.99655	 1.06545	         -3155.1	         2998.35	        -156.755
     222	 1.99737	 1.06195	        -3156.33	         2999.59	        -156.742
     223	 1.99814	 1.05866	        -3157.51	         3000.74	        -156.773
     224	 1.99874	 1.05598	        -3158.44	         3001.63	        -156.811
     225	 1.99898	 1.05446	        -3158.82	            3002	        -156.824
     226	 1.99881	 1.05423	        -3158.61	         3001.74	        -156.878
     227	 1.99782	  1.0564	        -3157.22	         3000.26	        -156.959
     228	 1.99559	 1.06244	        -3153.81	         2996.91	        -156.893
     229	 1.99282	 1.07023	        -3149.46	         2992.76	        -156.698
     230	 1.99119	 1.07458	        -3146.88	          2990.3	        -156.579
     231	 1.99177	  1.0722	        -3147.78	         2991.18	        -156.595
     232	 1.99445	 1.06348	        -3151.87	          2995.2	        -156.662
     233	 1.99846	 1.05066	        -3157.94	         3001.22	        -156.724
     234	 2.00303	 1.03609	         -3164.8	         3008.06	         -156.74
     235	 2.00778	 1.02101	         -3171.9	          3015.2	        -156.704
     236	 2.01278	 1.00548	        -3179.38	         3022.69	        -156.692
     237	 2.01783	 0.99021	        -3187.06	         3030.27	        -156.792
     238	 2.02185	0.978631	        -3193.27	          3036.3	        -156.967
     239	 2.02319	0.975823	        -3195.41	         3038.32	        -157.095
     240	 2.02065	0.985367	        -3191.61	          3034.5	        -157.111
     241	 2.01413	 1.00741	        -3181.75	         3024.72	        -157.022
     242	 2.00467	 1.03873	         -3167.4	         3010.53	        -156.868
     243	 1.99402	 1.07386	        -3151.26	         2994.55	        -156.702
     244	 1.98411	 1.10677	        -3136.25	         2979.69	        -156.563
     245	 1.97661	 1.13214	        -3124.91	         2968.44	        -156.464
     246	 1.97272	 1.14615	        -3119.03	         2962.61	        -156.427
     247	 1.97287	 1.14722	        -3119.31	         2962.83	        -156.481
     248	 1.97654	 1.13675	        -3124.94	         2968.34	        -156.601
     249	 1.98253	 1.11835	        -3134.04	         2977.33	        -156.714
     250	 1.98957	 1.09591	        -3144.66	         2987.88	        -156.778
     251	 1.99678	 1.07221	         -3155.5	          2998.7	        -156.795
     252	 2.00377	 1.04878	        -3165.97	         3009.18	        -156.788
     253	 2.01036	 1.02643	        -3175.86	         3019.06	        -156.794
     254	  2.0163	  1.0062	        -3184.82	         3027.98	        -156.846
     255	 2.02098	0.990199	        -3191.92	         3034.99	         -156.93
     256	 2.02354	0.981178	        -3195.83	         3038.84	        -156.992
     257	 2.02336	0.981161	        -3195.57	         3038.56	        -157.012
     258	  2.0202	0.990817	        -3190.83	         3033.82	        -157.007
     259	 2.01416	  1.0098	        -3181.77	         3024.77	        -156.999
     260	 2.00548	 1.03726	        -3168.75	         3011.75	        -157.002
     261	 1.99444	  1.0721	        -3152.19	         2995.18	        -157.013
     262	 1.98153	 1.11266	        -3132.77	         2975.82	         -156.95
     263	 1.96838	 1.15431	        -3112.72	          2956.1	        -156.624
     264	 1.95873	 1.18599	        -3097.87	         2941.62	        -156.256
     265	 1.95565	 1.19773	         -3093.5	            2937	        -156.501
     266	  1.9574	 1.19518	        -3096.54	         2939.63	        -156.905
     267	 1.96007	 1.18997	        -3100.69	         2943.63	        -157.068
     268	 1.96127	 1.18855	        -3102.56	         2945.43	        -157.126
     269	 1.96008	 1.19355	        -3100.75	         2943.64	          -157.1
     270	 1.95669	 1.20441	        -3095.52	         2938.57	        -156.954
     271	 1.95258	 1.21683	        -3089.11	         2932.39	        -156.721
     272	 1.95001	 1.22402	        -3085.08	         2928.54	        -156.531
     273	 1.95083	 1.22053	         -3086.3	         2929.76	        -156.535
     274	 1.95511	 1.20613	         -3092.9	         2936.19	        -156.704
     275	 1.96147	 1.18524	        -3102.57	         2945.72	        -156.848
     276	 1.96845	 1.16227	        -3113.08	         2956.21	        -156.879
     277	 1.97546	 1.13917	        -3123.58	         2966.72	        -156.863
     278	 1.98236	  1.1166	        -3133.92	         2977.06	         -156.86
     279	 1.98898	 1.09535	        -3143.87	            2987	        -156.868
     280	  1.9951	 1.07638	        -3153.06	         2996.18	        -156.878
     281	 2.00043	 1.06072	        -3161.09	         3004.18	         -156.91
     282	 2.00452	  1.0498	        -3167.27	          3010.3	        -156.972
     283	 2.00668	 1.04566	        -3170.58	         3013.54	        -157.035
     284	 2.00632	 1.05006	        -3170.05	            3013	        -157.052
     285	 2.00334	 1.06323	        -3165.54	         3008.54	        -156.997
     286	 1.99839	 1.08319	        -3157.99	         3001.11	        -156.879
     287	 1.99275	 1.10607	        -3149.38	         2992.65	        -156.737
     288	 1.98786	 1.12743	        -3141.98	         2985.32	        -156.655
     289	  1.9846	 1.14457	        -3137.11	         2980.42	        -156.686
     290	 1.98279	 1.15788	        -3134.49	          2977.7	        -156.783
     291	 1.98157	 1.16975	        -3132.76	         2975.88	        -156.878
     292	    1.98	 1.18282	         -3130.5	         2973.53	         -156.97
     293	 1.97713	  1.1996	         -3126.3	         2969.22	        -157.079
     294	 1.97205	 1.22261	        -3118.74	          2961.6	        -157.141
     295	 1.96444	 1.25265	        -3107.24	         2950.18	        -157.058
     296	 1.95533	 1.28641	        -3093.37	         2936.53	        -156.845
     297	  1.9469	 1.31715	        -3080.53	         2923.87	        -156.657
     298	 1.94111	 1.33868	         -3071.8	         2915.19	        -156.614
     299	  1.9387	 1.34865	        -3068.25	         2911.57	        -156.677
     300	 1.93936	 1.34782	        -3069.31	         2912.57	        -156.746
     301	  1.9426	 1.33764	         -3074.2	         2917.42	        -156.777
     302	 1.94809	 1.31909	        -3082.46	         2925.65	        -156.803
     303	 1.95551	 1.29328	        -3093.65	         2936.79	        -156.856
     304	 1.96433	 1.26217	        -3106.92	         2950.01	        -156.904
     305	 1.97389	 1.22795	        -3121.32	         2964.36	        -156.956
     306	 1.98336	 1.19336	        -3135.63	         2978.57	        -157.067
     307	 1.99148	 1.16243	        -3147.87	         2990.74	        -157.133
     308	 1.99744	 1.13793	        -3156.72	         2999.69	        -157.034
     309	 2.00179	 1.11843	        -3163.07	         3006.21	        -156.857
     310	 2.00575	 1.10035	        -3168.92	         3012.15	        -156.779
     311	 2.00982	  1.0823	        -3175.09	         3018.26	         -156.83
     312	 2.01351	 1.06596	        -3180.67	         3023.79	        -156.887
     313	 2.01623	 1.05307	        -3184.73	         3027.87	        -156.859
     314	 2.01806	  1.0433	        -3187.42	         3030.62	        -156.804
     315	 2.01933	 1.03555	        -3189.34	         3032.52	        -156.821
     316	 2.01983	 1.03032	        -3190.15	         3033.27	        -156.875
     317	 2.01911	 1.02894	        -3189.05	         3032.18	        -156.871
     318	 2.01712	 1.03131	        -3186.02	         3029.21	        -156.812
     319	 2.01437	 1.03581	        -3181.84	         3025.08	        -156.757
     320	 2.01139	 1.04073	        -3177.34	         3020.61	        -156.732
     321	 2.00852	 1.04498	        -3173.03	         3016.31	        -156.716
     322	 2.00606	 1.04762	         -3169.3	         3012.62	        -156.682
     323	 2.00446	 1.04732	        -3166.84	         3010.22	        -156.624
     324	 2.00432	  1.0423	        -3166.58	            3010	        -156.582
     325	 2.00598	 1.03153	        -3169.12	         3012.49	        -156.628
     326	 2.00897	 1.01651	        -3173.75	         3016.97	        -156.779
     327	 2.01189	 1.00154	        -3178.29	         3021.36	         -156.93
     328	 2.01336	0.990986	        -3180.52	         3023.57	        -156.954
     329	 2.01305	0.986027	        -3179.95	          3023.1	         -156.85
     330	 2.01171	0.984541	        -3177.83	         3021.09	        -156.734
     331	 2.01027	0.983909	        -3175.64	         3018.93	        -156.701
     332	 2.00902	0.983432	        -3173.79	         3017.05	         -156.74
     333	  2.0076	0.984214	        -3171.72	         3014.92	        -156.799
     334	 2.00546	0.987834	        -3168.58	         3011.72	        -156.859
     335	 2.00212	0.995685	        -3163.62	          3006.7	        -156.918
     336	 1.99722	 1.00872	        -3156.29	         2999.35	        -156.942
     337	 1.99087	 1.02661	        -3146.72	         2989.83	        -156.894
     338	 1.98387	 1.04695	        -3136.14	         2979.33	        -156.811
     339	 1.97733	 1.06635	         -3126.3	         2969.52	         -156.78
     340	 1.97195	 1.08265	        -3118.27	         2961.45	        -156.818
     341	 1.96792	 1.09535	        -3112.24	         2955.41	        -156.831
     342	 1.96551	 1.10358	         -3108.6	         2951.79	        -156.804
     343	 1.96497	 1.10625	        -3107.87	         2950.99	        -156.882
     344	 1.96573	 1.10509	        -3109.07	         2952.11	        -156.953
     345	 1.96714	 1.10203	        -3111.11	         2954.24	        -156.871
     346	 1.96961	 1.09572	        -3114.71	         2957.94	        -156.763
     347	 1.97381	 1.08415	        -3120.97	         2964.24	        -156.728
     348	  1.9798	 1.06724	        -3129.98	         2973.22	        -156.757
     349	 1.98692	 1.04694	        -3140.74	         2983.91	        -156.826
     350	 1.99408	 1.02652	        -3151.56	         2994.65	        -156.917
     351	 1.99999	 1.00976	         -3160.5	         3003.51	        -156.995
     352	 2.00359	0.999855	        -3165.93	          3008.9	        -157.027
     353	 2.00435	0.998347	        -3167.05	         3010.05	        -157.002
     354	 2.00243	 1.00475	         -3164.1	         3007.17	         -156.93
     355	 1.99857	 1.01679	        -3158.21	         3001.38	        -156.834
     356	 1.99387	 1.03106	        -3151.07	         2994.34	        -156.734
     357	 1.98959	 1.04375	        -3144.55	         2987.91	        -156.635
     358	   1.987	   1.051	        -3140.56	         2984.03	        -156.523
     359	 1.98742	 1.04892	        -3141.07	         2984.65	        -156.415
     360	 1.99186	 1.03445	         -3147.7	         2991.31	        -156.395
     361	  2.0003	 1.00767	         -3160.5	         3003.97	        -156.526
     362	 2.01124	0.973185	        -3177.13	         3020.39	        -156.748
     363	 2.02222	0.938512	         -3193.8	         3036.85	        -156.946
     364	 2.03092	0.910701	        -3206.96	          3049.9	        -157.054
     365	 2.03586	0.894255	         -3214.4	         3057.32	        -157.076
     366	 2.03658	 0.89076	        -3215.42	         3058.39	        -157.022
     367	 2.03352	0.899028	        -3210.69	          3053.8	        -156.894
     368	   2.028	0.915266	        -3202.23	         3045.52	         -156.71
     369	 2.02195	0.933847	        -3192.98	         3036.46	        -156.522
     370	 2.01734	0.949024	        -3185.94	         3029.53	        -156.411
     371	 2.01526	0.957441	        -3182.88	         3026.41	        -156.466
     372	 2.01525	0.960431	        -3183.08	          3026.4	        -156.677
     373	  2.0154	0.963616	        -3183.53	         3026.62	         -156.91
     374	 2.01355	0.973284	        -3180.88	         3023.85	        -157.029
     375	  2.0086	0.992583	        -3173.42	         3016.43	        -156.984
     376	 2.00105	 1.01994	        -3161.91	          3005.1	         -156.81
     377	 1.99264	 1.04999	        -3149.09	         2992.48	        -156.607
     378	 1.98545	 1.07643	        -3138.17	          2981.7	        -156.478
     379	 1.98087	 1.09495	         -3131.3	         2974.83	        -156.468
     380	 1.97914	 1.10469	        -3128.79	         2972.23	        -156.556
     381	 1.97949	 1.10772	        -3129.44	         2972.76	        -156.672
     382	 1.98084	 1.10721	        -3131.54	         2974.79	        -156.748
     383	 1.98238	 1.10553	        -3133.87	          2977.1	        -156.767
     384	  1.9838	 1.10364	        -3135.98	         2979.22	        -156.767
     385	   1.985	 1.10186	        -3137.81	         2981.03	        -156.778
     386	 1.98595	 1.10057	        -3139.23	         2982.44	        -156.783
     387	 1.98664	 1.09983	        -3140.26	         2983.49	        -156.772
     388	 1.98724	 1.09933	        -3141.16	         2984.38	        -156.778
     389	 1.98777	 1.09903	        -3141.96	         2985.18	        -156.785
     390	 1.98831	 1.09891	        -3142.74	         2985.98	        -156.758
     391	 1.98908	 1.09825	        -3143.91	         2987.15	        -156.758
     392	 1.99009	 1.09704	        -3145.48	         2988.65	         -156.83
     393	 1.99074	  1.0969	        -3146.57	         2989.64	         -156.93
     394	 1.99025	 1.10007	         -3145.9	          2988.9	        -156.996
     395	  1.9882	  1.1076	         -3142.8	         2985.82	        -156.976
     396	 1.98504	   1.118	        -3137.94	         2981.09	        -156.847
     397	 1.98221	 1.12691	        -3133.52	         2976.84	        -156.689
     398	 1.98129	 1.12939	        -3132.09	         2975.46	        -156.624
     399	 1.98306	 1.12315	        -3134.78	         2978.12	        -156.661
     400	 1.98731	 1.10895	         -3141.2	         2984.49	        -156.703
     401	 1.99355	 1.08839	        -3150.55	         2993.85	        -156.705
     402	 2.00142	 1.06271	        -3162.37	         3005.66	        -156.717
     403	 2.01037	 1.03385	        -3175.87	         3019.08	        -156.796
     404	 2.01923	 1.00557	        -3189.29	         3032.37	        -156.924
     405	 2.02643	0.982863	        -3200.19	         3043.17	        -157.026
     406	 2.03067	0.969848	        -3206.58	         3049.53	        -157.048
     407	 2.03144	0.968208	        -3207.68	         3050.68	        -156.999
     408	   2.029	0.977215	        -3203.94	         3047.03	        -156.913
     409	 2.02413	0.994575	        -3196.53	         3039.72	        -156.811
     410	 2.01786	 1.01711	        -3187.03	         3030.32	        -156.714
     411	 2.01123	 1.04155	        -3177.03	         3020.37	        -156.665
     412	 2.00487	 1.06567	        -3167.52	         3010.83	        -156.688
     413	 1.99881	 1.08904	        -3158.49	         3001.73	        -156.758
     414	 1.99265	 1.11244	        -3149.31	          2992.5	         -156.81
     415	 1.98618	 1.13613	        -3139.58	          2982.8	         -156.78
     416	 1.97992	 1.15829	        -3130.06	         2973.41	        -156.655
     417	 1.97521	 1.17474	        -3122.82	         2966.34	        -156.486
     418	  1.9737	 1.18046	        -3120.45	         2964.08	         -156.37
     419	  1.9765	 1.17221	        -3124.65	         2968.27	        -156.378
     420	 1.98347	 1.15049	        -3135.24	         2978.73	        -156.508
     421	 1.99326	 1.11951	        -3150.12	         2993.42	        -156.698
     422	 2.00381	 1.08557	        -3166.12	         3009.24	        -156.886
     423	 2.01304	 1.05501	         -3180.1	         3023.09	        -157.016
     424	 2.01946	 1.03248	        -3189.78	         3032.72	        -157.062
     425	 2.02248	 1.01997	        -3194.26	         3037.24	        -157.019
     426	  2.0225	 1.01649	        -3194.16	         3037.28	         -156.88
     427	 2.02092	 1.01815	         -3191.6	          3034.9	          -156.7
     428	 2.01935	 1.02015	         -3189.2	         3032.55	        -156.653
     429	 2.01824	 1.02111	        -3187.68	         3030.88	        -156.795
     430	 2.01647	 1.02444	        -3185.16	         3028.24	        -156.926
     431	 2.01295	 1.03341	        -3179.85	         3022.96	        -156.891
     432	 2.00788	 1.04725	        -3172.12	         3015.35	        -156.765
     433	 2.00226	 1.06281	        -3163.61	         3006.91	        -156.698
     434	 1.99671	 1.07809	        -3155.28	         2998.59	        -156.689
     435	 1.99137	 1.09262	        -3147.27	         2990.58	        -156.692
     436	 1.98624	 1.10613	        -3139.55	         2982.88	        -156.673
     437	 1.98162	 1.11757	        -3132.54	         2975.96	        -156.582
     438	 1.97851	 1.12399	        -3127.71	         2971.29	        -156.427
     439	 1.97831	 1.12106	        -3127.32	         2970.99	        -156.326
     440	  1.9819	 1.10625	        -3132.75	         2976.38	        -156.371
     441	  1.9888	 1.08112	        -3143.25	         2986.72	        -156.528
     442	 1.99736	 1.05069	        -3156.28	         2999.56	        -156.718
     443	 2.00558	 1.02105	        -3168.75	          3011.9	         -156.85
     444	 2.01202	0.996762	        -3178.42	         3021.55	        -156.862
     445	 2.01629	0.979118	        -3184.74	         3027.96	        -156.776
     446	 2.01898	0.966565	        -3188.68	            3032	        -156.676
     447	 2.02088	0.956878	        -3191.48	         3034.84	        -156.638
     448	 2.02229	0.949181	        -3193.64	         3036.97	         -156.67
     449	 2.02299	0.944215	        -3194.72	         3038.01	        -156.715
     450	 2.02261	0.943005	        -3194.16	         3037.44	        -156.726
     451	 2.02111	0.945609	        -3191.89	          3035.2	        -156.699
     452	 2.01883	0.951022	        -3188.44	         3031.78	        -156.663
     453	 2.01621	0.957953	        -3184.49	         3027.84	        -156.654
     454	 2.01344	  0.9658	        -3180.38	         3023.69	        -156.693
     455	 2.01033	0.975208	         -3175.8	         3019.03	         -156.77
     456	 2.00632	0.987808	        -3169.86	         3013.01	        -156.849
     457	 2.00086	  1.0052	        -3161.69	         3004.81	        -156.881
     458	 1.99385	 1.02762	        -3151.13	         2994.29	        -156.837
     459	 1.98586	 1.05321	        -3139.08	         2982.32	        -156.756
     460	 1.97783	 1.07909	        -3126.98	         2970.27	        -156.713
     461	 1.97041	 1.10312	        -3115.86	         2959.15	        -156.715
     462	 1.96396	 1.12416	        -3106.17	         2949.47	        -156.705
     463	 1.95889	 1.14086	        -3098.53	         2941.86	        -156.672
     464	 1.95577	 1.15136	        -3093.82	         2937.18	        -156.639
     465	 1.95525	 1.15385	        -3092.96	          2936.4	        -156.562
     466	 1.95817	 1.14591	        -3097.27	         2940.78	        -156.481
     467	 1.96508	 1.12591	        -3107.71	         2951.15	        -156.561
     468	   1.975	 1.09684	        -3122.83	         2966.02	        -156.802
     469	 1.98548	 1.06614	        -3138.76	         2981.74	        -157.022
     470	 1.99412	 1.04104	         -3151.8	          2994.7	        -157.107
     471	 1.99968	 1.02518	        -3160.13	         3003.05	        -157.079
     472	  2.0021	 1.01876	        -3163.68	         3006.67	        -157.011
     473	  2.0019	 1.02019	        -3163.31	         3006.38	        -156.931
     474	 1.99996	 1.02688	        -3160.27	         3003.46	        -156.814
     475	 1.99755	 1.03499	         -3156.5	         2999.85	        -156.658
     476	 1.99628	 1.03967	        -3154.48	         2997.95	        -156.527
     477	 1.99747	 1.03697	        -3156.23	         2999.73	        -156.501
     478	 2.00141	 1.02608	        -3162.23	         3005.64	         -156.59
     479	 2.00721	 1.00973	        -3171.08	         3014.33	        -156.749
     480	 2.01319	0.992977	        -3180.23	         3023.31	        -156.922
     481	  2.0175	0.981458	        -3186.82	         3029.77	         -157.05
     482	 2.01867	0.979543	        -3188.63	         3031.53	        -157.099
     483	 2.01606	0.989145	        -3184.69	         3027.62	        -157.078
     484	 2.00986	 1.00963	        -3175.31	         3018.32	        -156.997
     485	 2.00103	 1.03808	        -3161.93	         3005.06	        -156.863
     486	 1.99112	 1.06967	        -3146.91	          2990.2	        -156.715
     487	 1.98187	 1.09898	        -3132.94	         2976.33	         -156.61
     488	 1.97465	 1.12179	        -3122.07	          2965.5	        -156.563
     489	 1.97024	 1.13561	        -3115.44	         2958.89	        -156.549
     490	 1.96896	 1.13935	        -3113.51	         2956.96	        -156.548
     491	 1.97086	  1.1328	        -3116.36	         2959.81	        -156.553
     492	 1.97573	 1.11652	        -3123.71	         2967.11	        -156.595
     493	 1.98288	 1.09255	        -3134.55	         2977.84	        -156.705
     494	 1.99102	 1.06487	        -3146.89	         2990.05	        -156.835
     495	 1.99866	 1.03807	        -3158.42	         3001.51	        -156.913
     496	 2.00481	  1.0153	        -3167.65	         3010.74	         -156.91
     497	 2.00929	0.997348	         -3174.3	         3017.47	        -156.835
     498	 2.01269	0.982807	        -3179.28	         3022.56	        -156.716
     499	 2.01602	0.968936	        -3184.16	         3027.56	        -156.608
     500	 2.02018	0.953299	        -3190.38	          3033.8	        -156.584
     501	 2.02532	0.935658	        -3198.16	          3041.5	        -156.659
     502	 2.03069	 0.91837	        -3206.34	         3049.56	        -156.781
     503	 2.03506	0.905125	        -3213.03	         3056.12	        -156.907
     504	 2.03716	0.899653	        -3216.28	         3059.27	        -157.005
     505	 2.03606	0.904627	        -3214.64	         3057.61	         -157.03
     506	 2.03155	0.920482	        -3207.83	         3050.86	        -156.969
     507	 2.02432	0.945033	        -3196.86	         3040.01	         -156.85
     508	 2.01563	0.974287	        -3183.69	         3026.97	        -156.721
     509	 2.00693	  1.0038	        -3170.53	         3013.92	        -156.609
     510	 1.99949	 1.02963	        -3159.29	         3002.77	        -156.521
     511	  1.9943	 1.04877	        -3151.45	         2994.97	        -156.479
     512	 1.99178	 1.05983	        -3147.72	          2991.2	        -156.513
     513	 1.99164	 1.06367	         -3147.6	         2990.99	        -156.617
     514	  1.9929	 1.06316	        -3149.61	         2992.87	        -156.737
     515	 1.99446	 1.06162	        -3152.01	         2995.22	        -156.796
     516	 1.99578	  1.0608	        -3153.97	          2997.2	        -156.774
     517	 1.99694	  1.0604	         -3155.7	         2998.94	         -156.76
     518	 1.99796	 1.06032	        -3157.31	         3000.47	        -156.836
     519	 1.99816	 1.06258	        -3157.71	         3000.77	        -156.943
     520	 1.99662	 1.06993	        -3155.43	         2998.45	         -156.98
     521	 1.99302	 1.08327	        -3149.96	         2993.05	        -156.913
     522	 1.98804	 1.10061	        -3142.37	         2985.59	        -156.783
     523	 1.98289	 1.11832	        -3134.58	         2977.87	        -156.715
     524	 1.97828	 1.13422	        -3127.69	         2970.94	        -156.751
     525	 1.97409	  1.1486	        -3121.43	         2964.66	        -156.771
     526	 1.97031	 1.16147	         -3115.7	         2958.99	        -156.703
     527	 1.96763	 1.17068	        -3111.56	         2954.97	        -156.594
     528	 1.96705	  1.1732	        -3110.64	          2954.1	        -156.541
     529	 1.96902	 1.16772	        -3113.67	         2957.06	        -156.609
     530	 1.97287	 1.15636	        -3119.59	         2962.83	        -156.755
     531	 1.97714	 1.14351	        -3126.13	         2969.24	        -156.895
     532	 1.98042	  1.1334	        -3131.13	         2974.16	        -156.969
     533	 1.98201	  1.1282	        -3133.48	         2976.54	        -156.937
     534	 1.98223	 1.12699	        -3133.71	         2976.88	         -156.83
     535	 1.98206	 1.12682	        -3133.39	         2976.61	        -156.777
     536	 1.98205	 1.12596	        -3133.41	         2976.59	        -156.813
     537	  1.9821	 1.12472	        -3133.49	         2976.68	        -156.804
     538	 1.98234	 1.12273	        -3133.77	         2977.04	        -156.728
     539	 1.98321	 1.11842	        -3135.06	         2978.33	        -156.724
     540	 1.98451	 1.11221	         -3137.1	         2980.28	        -156.815
     541	 1.98531	 1.10692	        -3138.35	          2981.5	        -156.854
     542	 1.98503	 1.10428	        -3137.86	         2981.08	         -156.79
     543	 1.98396	 1.10333	        -3136.16	         2979.46	        -156.694
     544	 1.98278	 1.10199	        -3134.34	          2977.7	        -156.635
     545	   1.982	 1.09889	        -3133.16	         2976.53	        -156.625
     546	 1.98171	 1.09379	        -3132.75	          2976.1	        -156.649
     547	 1.98172	 1.08732	         -3132.8	         2976.11	        -156.695
     548	 1.98165	 1.08061	        -3132.76	            2976	        -156.756
     549	 1.98106	 1.07498	        -3131.92	         2975.12	        -156.805
     550	 1.97974	 1.07119	        -3129.92	         2973.13	        -156.785
     551	 1.97816	 1.06796	        -3127.44	         2970.77	        -156.668
     552	 1.97759	 1.06169	        -3126.44	         2969.92	        -156.529
     553	 1.97939	 1.04849	        -3129.08	          2972.6	        -156.474
     554	 1.98404	 1.02706	        -3136.12	         2979.59	        -156.535
     555	 1.99091	0.999526	        -3146.56	          2989.9	        -156.661
     556	 1.99866	 0.97013	        -3158.29	         3001.51	        -156.779
     557	 2.00593	0.943087	        -3169.27	         3012.41	        -156.852
     558	 2.01176	0.921437	        -3178.06	         3021.16	        -156.898
     559	 2.01549	0.907291	        -3183.72	         3026.77	        -156.952
     560	 2.01652	0.902574	        -3185.31	          3028.3	        -157.012
     561	 2.01431	0.908866	        -3182.03	         3024.99	        -157.033
     562	 2.00881	0.926291	        -3173.73	         3016.74	        -156.992
     563	  2.0006	 0.95293	        -3161.33	         3004.42	        -156.909
     564	 1.99076	0.985368	        -3146.48	         2989.67	        -156.816
     565	 1.98055	 1.01965	        -3131.08	         2974.35	        -156.731
     566	 1.97118	 1.05197	        -3116.95	         2960.29	        -156.659
     567	 1.96372	 1.07895	         -3105.7	          2949.1	        -156.592
     568	 1.95912	  1.0977	        -3098.75	         2942.21	        -156.538
     569	 1.95798	  1.1063	        -3097.09	         2940.49	        -156.594
     570	 1.95968	 1.10633	        -3099.87	         2943.05	         -156.82
     571	 1.96222	 1.10383	        -3103.88	         2946.86	        -157.022
     572	  1.9637	 1.10444	        -3106.12	         2949.08	        -157.035
     573	  1.9638	   1.109	        -3106.14	         2949.22	        -156.919
     574	 1.96348	 1.11465	        -3105.53	         2948.74	        -156.792
     575	 1.96391	 1.11796	        -3106.14	         2949.39	        -156.741
     576	 1.96556	 1.11755	        -3108.68	         2951.86	        -156.825
     577	  1.9676	 1.11569	        -3111.93	         2954.93	        -156.999
     578	 1.96849	 1.11694	        -3113.37	         2956.26	        -157.107
     579	  1.9672	 1.12417	        -3111.39	         2954.32	        -157.062
     580	  1.9641	 1.13611	        -3106.57	         2949.68	        -156.884
     581	 1.96086	 1.14778	        -3101.47	         2944.81	        -156.662
     582	 1.95948	 1.15311	        -3099.28	         2942.75	        -156.526
     583	 1.96116	 1.14855	        -3101.81	         2945.26	        -156.549
     584	 1.96561	   1.135	         -3108.6	         2951.94	        -156.663
     585	 1.97161	 1.11619	         -3117.7	         2960.94	        -156.757
     586	 1.97796	 1.09575	        -3127.26	         2970.47	        -156.793
     587	 1.98395	 1.07591	        -3136.24	         2979.45	        -156.795
     588	 1.98923	 1.05783	        -3144.15	         2987.37	        -156.786
     589	 1.99364	 1.04218	        -3150.76	         2993.99	        -156.772
     590	 1.99715	 1.02923	           -3156	         2999.25	        -156.749
     591	 1.99987	 1.01884	        -3160.04	         3003.33	        -156.717
     592	 2.00204	 1.01045	        -3163.27	         3006.58	        -156.691
     593	 2.00389	 1.00354	        -3166.05	         3009.35	        -156.696
     594	 2.00543	0.998171	        -3168.42	         3011.68	         -156.74
     595	 2.00642	0.995253	        -3169.95	         3013.16	        -156.796
     596	 2.00657	0.995747	        -3170.18	         3013.37	         -156.81
     597	 2.00596	0.999435	        -3169.24	         3012.46	        -156.781
     598	 2.00495	 1.00515	        -3167.75	         3010.94	        -156.808
     599	 2.00341	 1.01313	        -3165.54	         3008.64	        -156.903
     600	 2.00072	 1.02521	        -3161.54	         3004.61	        -156.939
     601	 1.99665	 1.04192	        -3155.39	          2998.5	         -156.89
     602	 1.99165	 1.06166	        -3147.84	            2991	        -156.839
     603	 1.98626	 1.08262	        -3139.77	         2982.92	        -156.854
     604	 1.98052	 1.10442	        -3131.24	         2974.31	        -156.932
     605	 1.97406	 1.12795	        -3121.62	         2964.61	        -157.006
     606	 1.96685	 1.15328	        -3110.71	          2953.8	        -156.911
     607	  1.9607	  1.1754	        -3101.12	         2944.57	        -156.547
     608	 1.95892	 1.18398	        -3098.43	          2941.9	        -156.532
     609	 1.96154	 1.17852	        -3102.89	         2945.83	        -157.051
     610	 1.96449	 1.17192	         -3107.5	         2950.26	        -157.244
     611	 1.96543	  1.1708	        -3108.71	         2951.67	        -157.044
     612	 1.96544	 1.17161	        -3108.52	         2951.68	        -156.835
     613	 1.96612	 1.16964	        -3109.52	         2952.71	         -156.81
     614	 1.96773	 1.16439	        -3112.01	         2955.12	        -156.885
     615	 1.96958	 1.15803	        -3114.83	          2957.9	        -156.929
     616	 1.97113	 1.15218	        -3117.14	         2960.23	        -156.915
     617	 1.97234	 1.14694	        -3118.92	         2962.03	        -156.883
     618	 1.97338	 1.14178	        -3120.46	         2963.59	        -156.864
     619	 1.97439	 1.13632	        -3121.97	         2965.11	        -156.862
     620	 1.97541	 1.13041	         -3123.5	         2966.65	        -156.859
     621	 1.97659	  1.1237	        -3125.24	         2968.41	        -156.826
     622	 1.97832	 1.11505	        -3127.78	            2971	        -156.782
     623	 1.98102	 1.10317	        -3131.83	         2975.05	        -156.784
     624	 1.98475	 1.08805	        -3137.45	         2980.65	        -156.792
     625	 1.98944	 1.07019	        -3144.44	         2987.68	        -156.754
     626	 1.99514	 1.04952	        -3152.97	         2996.23	        -156.743
     627	  2.0016	 1.02691	        -3162.74	         3005.93	        -156.809
     628	 2.00795	  1.0052	        -3172.35	         3015.45	        -156.896
     629	 2.01308	0.987741	        -3180.09	         3023.14	         -156.95
     630	  2.0162	0.976896	        -3184.79	         3027.83	        -156.962
     631	 2.01701	0.973559	        -3185.98	         3029.05	        -156.935
     632	 2.01567	0.977266	         -3183.9	         3027.02	         -156.88
     633	 2.01265	0.986496	        -3179.31	          3022.5	        -156.809
     634	 2.00866	0.999109	        -3173.26	         3016.52	         -156.74
     635	 2.00441	 1.01289	        -3166.84	         3010.15	        -156.694
     636	 2.00043	 1.02614	        -3160.85	         3004.17	         -156.68
     637	 1.99699	  1.0379	         -3155.7	            2999	        -156.693
     638	 1.99416	 1.04783	        -3151.46	         2994.77	        -156.698
     639	 1.99222	 1.05519	        -3148.48	         2991.85	        -156.633
     640	 1.99188	 1.05774	        -3147.91	         2991.34	        -156.572
     641	 1.99357	 1.05398	        -3150.56	         2993.89	        -156.677
     642	 1.99634	 1.04679	         -3154.9	         2998.03	        -156.869
     643	 1.99835	 1.04154	        -3158.02	         3001.04	         -156.98
     644	 1.99838	  1.0417	        -3158.06	          3001.1	        -156.966
     645	 1.99649	  1.0471	        -3155.09	         2998.25	        -156.837
     646	 1.99388	 1.05418	        -3150.99	         2994.35	        -156.637
     647	 1.99246	 1.05746	        -3148.68	         2992.21	         -156.47
     648	  1.9937	 1.05259	        -3150.53	         2994.08	        -156.454
     649	 1.99766	 1.03954	        -3156.63	         3000.01	        -156.619
     650	 2.00269	  1.0233	        -3164.42	         3007.56	        -156.857
     651	 2.00648	 1.01088	        -3170.27	         3013.25	        -157.021
     652	 2.00734	 1.00735	        -3171.58	         3014.53	        -157.051
     653	 2.00484	 1.01388	        -3167.76	         3010.79	        -156.972
     654	 1.99976	 1.02822	           -3160	         3003.17	        -156.839
     655	 1.99348	 1.04614	        -3150.44	         2993.75	        -156.698
     656	 1.98763	 1.06282	        -3141.51	         2984.96	        -156.544
     657	  1.9839	 1.07319	        -3135.78	         2979.38	        -156.402
     658	 1.98366	 1.07311	        -3135.41	         2979.02	        -156.388
     659	 1.98699	 1.06236	        -3140.54	         2984.01	        -156.534
     660	 1.99245	 1.04534	        -3148.92	          2992.2	         -156.72
     661	 1.99812	 1.02793	        -3157.53	          3000.7	        -156.831
     662	 2.00268	 1.01413	        -3164.38	         3007.54	        -156.841
     663	 2.00575	 1.00511	        -3168.96	         3012.15	        -156.804
     664	 2.00752	 1.00036	        -3171.57	          3014.8	        -156.772
     665	 2.00826	0.999044	        -3172.65	         3015.91	        -156.733
     666	 2.00839	0.999949	        -3172.78	         3016.11	        -156.675
     667	 2.00842	 1.00143	        -3172.81	         3016.16	        -156.653
     668	 2.00858	 1.00277	        -3173.11	         3016.39	        -156.724
     669	 2.00832	 1.00546	        -3172.86	         3016.01	        -156.852
     670	 2.00673	 1.01234	        -3170.56	         3013.62	         -156.94
     671	 2.00322	 1.02508	        -3165.31	         3008.36	        -156.946
     672	 1.99796	 1.04312	        -3157.38	         3000.46	        -156.913
     673	 1.99156	 1.06452	        -3147.73	         2990.86	        -156.866
     674	  1.9849	 1.08666	        -3137.64	         2980.87	        -156.773
     675	 1.97923	 1.10578	        -3129.01	         2972.36	        -156.644
     676	 1.97597	 1.11753	        -3124.04	         2967.48	        -156.552
     677	 1.97608	 1.11902	        -3124.21	         2967.65	        -156.567
     678	 1.97935	 1.11077	        -3129.25	         2972.55	        -156.705
     679	 1.98435	 1.09699	        -3136.95	         2980.06	        -156.894
     680	 1.98913	 1.08354	        -3144.25	         2987.21	        -157.041
     681	 1.99204	 1.07522	        -3148.68	         2991.58	        -157.105
     682	 1.99234	 1.07432	        -3149.09	         2992.03	        -157.059
     683	 1.99043	 1.07973	        -3146.08	         2989.17	        -156.909
     684	 1.98774	 1.08733	        -3141.86	         2985.13	        -156.728
     685	 1.98602	 1.09203	        -3139.15	         2982.55	        -156.595
     686	 1.98647	  1.0903	        -3139.82	         2983.22	          -156.6
     687	 1.98892	 1.08262	        -3143.64	          2986.9	        -156.736
     688	 1.99203	 1.07308	        -3148.41	         2991.57	        -156.839
     689	 1.99458	 1.06529	        -3152.23	         2995.39	        -156.837
     690	 1.99621	 1.06024	        -3154.63	         2997.84	        -156.791
     691	 1.99707	 1.05748	        -3155.91	         2999.14	        -156.773
     692	  1.9972	 1.05692	        -3156.14	         2999.33	        -156.807
     693	 1.99627	 1.05954	        -3154.79	         2997.93	        -156.863
     694	 1.99385	 1.06657	        -3151.17	          2994.3	        -156.877
     695	 1.98999	  1.0779	        -3145.32	         2988.51	        -156.809
     696	 1.98546	 1.09116	        -3138.42	         2981.72	        -156.707
     697	 1.98133	 1.10311	        -3132.18	         2975.51	        -156.665
     698	 1.97817	 1.11196	        -3127.46	         2970.78	        -156.681
     699	 1.97609	 1.11743	        -3124.34	         2967.66	        -156.679
     700	 1.97523	 1.11907	        -3123.01	         2966.37	        -156.644
     701	 1.97593	 1.11579	        -3124.05	         2967.42	        -156.624
     702	 1.97839	 1.10708	        -3127.77	         2971.11	        -156.659
     703	 1.98226	 1.09403	        -3133.67	         2976.91	        -156.759
     704	 1.98654	 1.07964	        -3140.25	         2983.33	        -156.916
     705	 1.98978	 1.06836	        -3145.24	         2988.19	        -157.049
     706	  1.9909	 1.06365	        -3146.89	         2989.87	        -157.018
     707	  1.9903	 1.06462	        -3145.81	         2988.97	        -156.839
     708	 1.98943	 1.06692	        -3144.44	         2987.66	        -156.776
     709	 1.98883	 1.06906	        -3143.61	         2986.76	        -156.849
     710	  1.9879	 1.07302	        -3142.24	         2985.38	        -156.856
     711	 1.98634	 1.07958	        -3139.85	         2983.04	        -156.813
     712	 1.98429	  1.0881	        -3136.76	         2979.96	        -156.803
     713	 1.98178	 1.09836	        -3133.02	         2976.19	        -156.826
     714	 1.97866	 1.11072	        -3128.36	         2971.52	        -156.843
     715	 1.97492	 1.12512	        -3122.72	         2965.91	        -156.818
     716	 1.97097	 1.14019	        -3116.72	         2959.98	        -156.738
     717	 1.96773	 1.15312	        -3111.77	         2955.12	        -156.653
     718	 1.96604	 1.16115	        -3109.26	         2952.59	        -156.676
     719	 1.96579	 1.16445	        -3109.03	         2952.21	        -156.824
     720	 1.96584	 1.16634	        -3109.22	         2952.29	        -156.935
     721	 1.96537	 1.16926	        -3108.48	         2951.59	        -156.891
     722	 1.96467	  1.1721	        -3107.36	         2950.53	        -156.832
     723	 1.96412	 1.17344	        -3106.61	         2949.71	        -156.904
     724	  1.9632	 1.17485	        -3105.32	         2948.33	        -156.992
     725	 1.96124	 1.17827	        -3102.36	         2945.39	        -156.966
     726	 1.95862	 1.18256	        -3098.26	         2941.46	        -156.801
     727	 1.95704	 1.18285	        -3095.64	         2939.08	        -156.559
     728	 1.95868	 1.17271	        -3097.99	         2941.55	        -156.449
     729	 1.96445	 1.14958	        -3106.79	          2950.2	        -156.587
     730	 1.97303	 1.11774	         -3119.9	         2963.07	        -156.825
     731	 1.98203	 1.08452	        -3133.55	         2976.57	        -156.981
     732	 1.98967	 1.05542	        -3145.03	         2988.02	        -157.007
     733	  1.9953	 1.03247	        -3153.45	         2996.47	        -156.983
     734	 1.99885	 1.01594	         -3158.8	          3001.8	        -156.999
     735	 2.00011	 1.00652	        -3160.74	         3003.69	        -157.052
     736	  1.9987	 1.00526	        -3158.64	         3001.57	        -157.071
     737	 1.99466	 1.01187	        -3152.51	         2995.51	        -156.993
     738	 1.98895	 1.02329	        -3143.79	         2986.96	        -156.831
     739	 1.98326	 1.03425	        -3135.09	         2978.42	         -156.67
     740	 1.97923	  1.0397	        -3128.95	         2972.37	        -156.577
     741	 1.97785	 1.03666	        -3126.84	          2970.3	        -156.546
     742	 1.97937	 1.02441	        -3129.14	         2972.57	        -156.567
     743	 1.98342	 1.00415	        -3135.29	         2978.65	        -156.638
     744	 1.98911	 0.97878	        -3143.92	         2987.18	        -156.735
     745	 1.99527	 0.95203	        -3153.25	         2996.42	        -156.823
     746	 2.00084	0.927305	        -3161.66	         3004.79	        -156.867
     747	 2.00523	0.906645	        -3168.23	         3011.38	        -156.857
     748	 2.00836	0.890439	        -3172.89	         3016.06	         -156.83
     749	 2.01036	0.878334	        -3175.88	         3019.06	        -156.823
     750	 2.01133	0.870128	        -3177.33	         3020.53	        -156.806
     751	 2.01155	0.865165	        -3177.57	         3020.84	        -156.727
     752	 2.01174	0.861249	        -3177.75	         3021.14	        -156.609
     753	  2.0129	0.855424	        -3179.44	         3022.88	        -156.555
     754	 2.01541	0.846526	        -3183.26	         3026.63	        -156.624
     755	 2.01859	0.836521	        -3188.16	         3031.41	         -156.75
     756	 2.02131	 0.82882	        -3192.32	          3035.5	        -156.824
     757	  2.0229	0.825448	        -3194.67	         3037.87	        -156.799
     758	 2.02354	0.825831	        -3195.56	         3038.83	        -156.732
     759	 2.02374	0.828426	        -3195.89	         3039.13	        -156.759
     760	  2.0232	0.834118	        -3195.24	         3038.32	         -156.92
     761	 2.02055	0.847046	        -3191.42	         3034.34	        -157.077
     762	 2.01446	0.871081	        -3182.34	         3025.22	        -157.117
     763	 2.00473	0.906684	        -3167.66	         3010.61	        -157.049
     764	 1.99235	0.950668	        -3148.94	         2992.05	        -156.888
     765	 1.97943	0.996731	        -3129.32	         2972.67	        -156.642
     766	 1.96872	 1.03649	        -3113.05	         2956.61	        -156.441
     767	 1.96233	 1.06331	        -3103.47	         2947.03	         -156.44
     768	 1.96041	 1.07646	        -3100.79	         2944.15	        -156.645
     769	 1.96111	 1.08116	         -3102.1	         2945.19	        -156.904
     770	 1.96199	 1.08441	        -3103.55	          2946.5	        -157.046
     771	 1.96158	 1.09033	        -3102.91	         2945.89	        -157.018
     772	 1.96005	 1.09834	        -3100.46	          2943.6	        -156.864
     773	 1.95885	 1.10427	        -3098.46	          2941.8	        -156.665
     774	 1.95981	 1.10277	         -3099.8	         2943.25	        -156.557
     775	  1.9639	 1.09113	           -3106	         2949.38	        -156.628
     776	 1.97049	 1.07146	        -3116.04	         2959.26	        -156.777
     777	 1.97818	 1.04822	        -3127.65	         2970.79	        -156.856
     778	 1.98604	  1.0244	        -3139.42	         2982.59	        -156.834
     779	 1.99394	 1.00059	        -3151.25	         2994.44	        -156.808
     780	  2.0017	0.977423	        -3162.99	         3006.07	        -156.919
     781	 2.00802	0.958817	        -3172.69	         3015.56	        -157.126
     782	 2.01096	 0.95073	        -3177.19	         3019.97	        -157.226
     783	 2.00956	0.955963	        -3174.98	         3017.87	        -157.107
     784	 2.00492	0.971176	        -3167.74	          3010.9	        -156.839
     785	 1.99952	0.988782	        -3159.39	          3002.8	        -156.589
     786	 1.99579	 1.00148	        -3153.67	         2997.21	        -156.464
     787	 1.99502	 1.00541	        -3152.52	         2996.05	        -156.465
     788	 1.99718	 1.00051	        -3155.86	          2999.3	        -156.562
     789	 2.00125	0.989773	        -3162.11	          3005.4	         -156.71
     790	 2.00566	0.977795	        -3168.87	         3012.02	         -156.85
     791	 2.00894	0.968982	        -3173.85	         3016.93	        -156.918
     792	 2.01032	0.965623	        -3175.87	            3019	        -156.872
     793	 2.01014	0.966787	        -3175.48	         3018.74	         -156.74
     794	 2.00955	0.969118	        -3174.47	         3017.85	        -156.624
     795	 2.00957	 0.96951	        -3174.49	         3017.88	        -156.616
     796	 2.01036	0.967481	        -3175.77	         3019.07	        -156.696
     797	 2.01137	0.964737	        -3177.34	         3020.59	        -156.756
     798	 2.01217	0.962577	        -3178.52	         3021.78	        -156.734
     799	 2.01301	0.960285	        -3179.71	         3023.04	        -156.667
     800	 2.01455	 0.95599	        -3181.97	         3025.35	        -156.623
     801	 2.01727	0.948452	        -3186.06	         3029.43	         -156.63
     802	 2.02115	0.937931	        -3191.94	         3035.25	        -156.684
     803	 2.02565	0.926204	        -3198.76	         3041.99	         -156.77
     804	 2.02984	0.916099	        -3205.14	         3048.28	        -156.858
     805	 2.03274	0.910606	        -3209.56	         3052.63	        -156.925
     806	 2.03355	0.912103	        -3210.82	         3053.85	        -156.962
     807	 2.03181	0.921924	        -3208.21	         3051.24	         -156.97
     808	 2.02741	0.940247	        -3201.59	         3044.64	        -156.959
     809	 2.02058	0.966152	        -3191.32	          3034.4	        -156.916
     810	 2.01208	0.997276	        -3178.44	         3021.64	        -156.798
     811	 2.00332	 1.02909	        -3165.14	         3008.51	         -156.63
     812	 1.99606	 1.05605	        -3154.17	         2997.61	         -156.56
     813	 1.99109	 1.07541	         -3146.8	         2990.16	        -156.636
     814	 1.98799	  1.0884	        -3142.21	          2985.5	        -156.706
     815	 1.98617	 1.09664	        -3139.46	         2982.78	        -156.681
     816	 1.98573	  1.0997	        -3138.75	         2982.12	        -156.628
     817	 1.98702	 1.09655	        -3140.67	         2984.05	        -156.625
     818	    1.99	 1.08741	        -3145.18	         2988.52	        -156.659
     819	 1.99426	 1.07372	        -3151.63	         2994.92	        -156.705
     820	 1.99916	 1.05758	        -3159.05	         3002.26	        -156.789
     821	 2.00368	 1.04208	        -3165.94	         3009.05	        -156.892
     822	 2.00675	 1.03072	         -3170.6	         3013.65	        -156.947
     823	  2.0077	 1.02559	        -3172.01	         3015.08	        -156.925
     824	 2.00662	 1.02662	         -3170.3	         3013.45	        -156.853
     825	 2.00409	 1.03214	        -3166.43	         3009.66	        -156.774
     826	 2.00084	 1.04007	         -3161.5	         3004.79	        -156.711
     827	 1.99752	 1.04861	        -3156.46	          2999.8	        -156.657
     828	 1.99465	 1.05618	        -3152.11	          2995.5	        -156.601
     829	 1.99274	 1.06128	        -3149.19	         2992.64	        -156.559
     830	 1.99207	 1.06295	         -3148.2	         2991.63	        -156.574
     831	 1.99239	 1.06185	        -3148.76	          2992.1	        -156.655
     832	 1.99284	 1.06038	        -3149.55	         2992.79	        -156.753
     833	 1.99248	 1.06131	        -3149.05	         2992.24	        -156.807
     834	 1.99075	 1.06609	        -3146.45	         2989.65	        -156.791
     835	 1.98786	 1.07408	        -3142.04	         2985.32	        -156.719
     836	 1.98458	 1.08289	        -3137.04	          2980.4	        -156.635
     837	 1.98184	 1.08969	        -3132.89	         2976.29	        -156.597
     838	  1.9802	 1.09274	        -3130.47	         2973.83	        -156.635
     839	 1.97959	 1.09225	        -3129.63	         2972.91	        -156.721
     840	 1.97957	 1.08952	        -3129.65	         2972.88	        -156.772
     841	 1.98013	 1.08484	        -3130.41	         2973.71	        -156.699
     842	 1.98225	 1.07549	        -3133.49	          2976.9	        -156.582
     843	 1.98693	 1.05847	        -3140.63	         2983.92	        -156.704
     844	  1.9932	 1.03698	        -3150.27	         2993.32	        -156.945
     845	 1.99906	 1.01741	        -3159.08	         3002.12	        -156.961
     846	 2.00403	 1.00124	        -3166.41	         3009.57	        -156.839
     847	 2.00878	0.986389	        -3173.53	          3016.7	        -156.827
     848	 2.01325	0.973157	        -3180.35	         3023.41	        -156.944
     849	 2.01634	0.965002	        -3185.07	         3028.04	        -157.032
     850	 2.01706	 0.96482	        -3186.14	         3029.12	        -157.022
     851	 2.01529	0.972899	        -3183.41	         3026.46	        -156.951
     852	 2.01153	0.987641	        -3177.69	         3020.83	        -156.866
     853	 2.00655	 1.00673	        -3170.14	         3013.36	        -156.785
     854	 2.00113	 1.02775	        -3161.94	         3005.23	        -156.717
     855	 1.99595	 1.04853	        -3154.12	         2997.44	         -156.68
     856	 1.99138	 1.06776	        -3147.28	          2990.6	        -156.683
     857	  1.9875	 1.08513	        -3141.48	         2984.77	         -156.71
     858	 1.98412	 1.10102	        -3136.45	         2979.71	        -156.749
     859	 1.98098	 1.11615	        -3131.78	         2974.99	        -156.793
     860	 1.97778	 1.13129	        -3127.04	         2970.19	        -156.844
     861	 1.97422	 1.14727	        -3121.75	         2964.85	        -156.898
     862	 1.97006	 1.16478	        -3115.53	         2958.61	        -156.918
     863	 1.96545	 1.18339	        -3108.55	          2951.7	        -156.852
     864	 1.96127	  1.2005	        -3102.18	         2945.44	        -156.739
     865	 1.95867	 1.21254	        -3098.25	         2941.54	        -156.715
     866	 1.95799	 1.21836	        -3097.35	         2940.52	        -156.831
     867	 1.95841	 1.22039	         -3098.1	         2941.14	        -156.962
     868	 1.95893	 1.22156	        -3098.88	         2941.93	        -156.957
     869	 1.95961	 1.22167	        -3099.77	         2942.94	        -156.832
     870	 1.96141	 1.21779	        -3102.36	         2945.64	         -156.72
     871	 1.96516	 1.20748	        -3107.97	         2951.27	        -156.702
     872	 1.97079	 1.19106	        -3116.49	         2959.71	         -156.78
     873	 1.97731	 1.17157	        -3126.39	         2969.49	        -156.901
     874	  1.9833	 1.15326	        -3135.49	         2978.48	         -157.01
     875	 1.98751	 1.13994	        -3141.87	         2984.79	        -157.082
     876	 1.98915	 1.13401	        -3144.35	         2987.25	        -157.101
     877	  1.9881	 1.13593	        -3142.72	         2985.68	        -157.046
     878	 1.98507	 1.14371	        -3138.05	         2981.13	        -156.919
     879	  1.9815	 1.15318	        -3132.52	         2975.78	        -156.743
     880	 1.97925	  1.1589	        -3128.99	         2972.39	        -156.599
     881	 1.97965	 1.15677	        -3129.62	         2973.01	        -156.613
     882	 1.98261	 1.14709	        -3134.21	         2977.45	        -156.761
     883	 1.98676	 1.13394	        -3140.56	         2983.66	        -156.901
     884	 1.99059	 1.12168	        -3146.38	          2989.4	         -156.98
     885	 1.99317	 1.11306	        -3150.27	         2993.28	         -156.99
     886	 1.99433	 1.10869	        -3151.93	         2995.01	        -156.921
     887	 1.99461	 1.10701	        -3152.26	         2995.43	        -156.827
     888	 1.99473	 1.10584	        -3152.45	         2995.62	        -156.835
     889	 1.99453	 1.10556	        -3152.31	         2995.32	        -156.997
     890	 1.99266	 1.11014	        -3149.67	         2992.51	        -157.158
     891	 1.98795	 1.12314	        -3142.55	         2985.45	        -157.103
     892	 1.98112	 1.14238	        -3132.03	         2975.21	        -156.821
     893	  1.9748	 1.15999	        -3122.29	         2965.72	        -156.566
     894	 1.97129	  1.1689	        -3117.03	         2960.46	        -156.572
     895	 1.97072	 1.16876	        -3116.35	          2959.6	        -156.755
     896	 1.97153	 1.16409	        -3117.74	         2960.81	        -156.925
     897	 1.97218	 1.15921	        -3118.78	          2961.8	        -156.982
     898	 1.97244	 1.15492	        -3119.02	         2962.19	        -156.823
     899	 1.97416	 1.14603	        -3121.25	         2964.77	        -156.487
     900	 1.98014	 1.12401	        -3130.21	         2973.74	        -156.467
     901	 1.99036	 1.08908	         -3145.9	         2989.07	         -156.83
     902	  2.0015	 1.05173	        -3162.84	         3005.77	        -157.073
     903	 2.01056	 1.02079	        -3176.49	         3019.36	        -157.132
     904	 2.01631	0.999955	        -3185.09	         3027.99	        -157.097
     905	 2.01875	0.989475	        -3188.65	         3031.65	            -157
     906	 2.01866	0.987247	         -3188.4	         3031.52	        -156.884
     907	 2.01711	 0.99018	        -3186.01	          3029.2	        -156.812
     908	  2.0149	0.995932	        -3182.69	         3025.88	        -156.809
     909	 2.01227	 1.00372	        -3178.78	         3021.93	        -156.848
     910	  2.0091	 1.01375	        -3174.06	         3017.17	        -156.885
     911	 2.00532	 1.02604	         -3168.4	         3011.51	        -156.887
     912	 2.00127	 1.03949	        -3162.24	         3005.43	        -156.818
     913	 1.99793	 1.05108	        -3157.11	         3000.42	        -156.685
     914	 1.99669	 1.05655	         -3155.2	         2998.57	        -156.634
     915	 1.99802	  1.0543	        -3157.34	         3000.56	        -156.777
     916	 2.00073	 1.04791	        -3161.58	         3004.62	        -156.951
     917	 2.00311	 1.04245	        -3165.21	         3008.18	        -157.027
     918	 2.00408	 1.04086	         -3166.7	         3009.64	         -157.06
     919	 2.00307	 1.04474	        -3165.23	         3008.13	        -157.102
     920	 1.99967	 1.05531	        -3160.13	         3003.03	        -157.102
     921	 1.99405	 1.07211	        -3151.56	         2994.59	        -156.968
     922	 1.98762	 1.09096	        -3141.68	         2984.96	        -156.721
     923	 1.98268	 1.10498	         -3134.1	         2977.55	        -156.548
     924	 1.98082	 1.10942	        -3131.28	         2974.75	        -156.534
     925	 1.98213	 1.10407	        -3133.32	         2976.71	        -156.611
     926	 1.98563	 1.09184	        -3138.71	         2981.97	         -156.74
     927	 1.98982	 1.07725	        -3145.12	         2988.25	        -156.868
     928	  1.9932	 1.06482	        -3150.28	         2993.32	        -156.954
     929	 1.99477	 1.05765	        -3152.66	         2995.68	         -156.98
     930	 1.99424	 1.05675	        -3151.82	         2994.89	         -156.93
     931	 1.99218	 1.06062	        -3148.62	          2991.8	         -156.82
     932	 1.98968	 1.06606	        -3144.79	         2988.04	        -156.746
     933	 1.98751	 1.07074	        -3141.55	         2984.79	        -156.767
     934	 1.98563	 1.07479	        -3138.78	         2981.97	        -156.817
     935	 1.98363	 1.07935	         -3135.8	         2978.97	        -156.829
     936	 1.98137	 1.08475	        -3132.38	         2975.58	        -156.796
     937	 1.97907	 1.09024	        -3128.88	         2972.14	        -156.746
     938	 1.97714	 1.09458	        -3125.95	         2969.24	        -156.712
     939	 1.97588	 1.09685	        -3124.04	         2967.35	        -156.695
     940	 1.97549	 1.09649	        -3123.43	         2966.76	        -156.664
     941	 1.97629	 1.09262	        -3124.57	         2967.96	        -156.615
     942	  1.9787	 1.08399	        -3128.16	         2971.57	        -156.586
     943	 1.98299	 1.06991	         -3134.6	         2978.01	        -156.592
     944	  1.9891	 1.05076	        -3143.79	         2987.17	         -156.62
     945	 1.99658	 1.02793	        -3155.11	          2998.4	        -156.713
     946	 2.00431	 1.00482	        -3166.89	         3009.99	        -156.891
     947	 2.01048	0.986938	         -3176.3	         3019.25	        -157.044
     948	 2.01353	0.979019	         -3180.9	         3023.82	        -157.075
     949	 2.01302	0.982357	        -3180.05	         3023.05	        -157.001
     950	 2.00958	   0.995	        -3174.79	         3017.89	        -156.901
     951	 2.00423	 1.01381	        -3166.73	         3009.87	        -156.855
     952	 1.99768	 1.03654	        -3156.93	         3000.05	        -156.875
     953	 1.99016	 1.06229	        -3145.68	         2988.77	        -156.908
     954	 1.98183	  1.0903	        -3133.17	         2976.27	        -156.904
     955	 1.97323	 1.11871	        -3120.21	         2963.37	        -156.842
     956	 1.96551	   1.144	        -3108.49	         2951.79	        -156.699
     957	 1.96047	 1.16083	        -3100.76	         2944.23	        -156.535
     958	 1.95977	 1.16413	         -3099.7	         2943.18	        -156.513
     959	 1.96369	 1.15314	        -3105.72	         2949.07	        -156.657
     960	 1.97087	 1.13207	        -3116.66	         2959.83	        -156.833
     961	 1.97936	 1.10678	        -3129.53	         2972.57	        -156.956
     962	 1.98753	  1.0822	        -3141.85	         2984.83	        -157.025
     963	 1.99426	 1.06179	        -3151.97	         2994.92	        -157.044
     964	 1.99896	 1.04748	        -3158.98	         3001.97	        -157.012
     965	 2.00157	 1.03952	        -3162.82	         3005.88	        -156.944
     966	 2.00248	 1.03682	         -3164.1	         3007.25	        -156.857
     967	 2.00236	 1.03745	        -3163.84	         3007.07	        -156.764
     968	 2.00199	 1.03911	         -3163.2	         3006.51	        -156.686
     969	 2.00202	 1.03983	         -3163.2	         3006.55	        -156.645
     970	 2.00278	 1.03862	        -3164.34	          3007.7	        -156.639
     971	 2.00427	 1.03553	        -3166.59	         3009.93	        -156.655
     972	 2.00621	 1.03133	        -3169.53	         3012.83	        -156.697
     973	 2.00808	  1.0275	        -3172.42	         3015.65	        -156.767
     974	 2.00918	 1.02612	        -3174.15	          3017.3	        -156.848
     975	 2.00877	  1.0293	        -3173.59	         3016.69	        -156.903
     976	 2.00645	 1.03816	        -3170.11	         3013.21	        -156.898
     977	 2.00243	 1.05197	           -3164	         3007.17	        -156.834
     978	 1.99745	 1.06835	        -3156.45	          2999.7	        -156.751
     979	 1.99248	 1.08435	        -3148.92	         2992.25	        -156.666
     980	 1.98851	 1.09699	        -3142.86	          2986.3	        -156.567
     981	 1.98654	 1.10325	        -3139.83	         2983.34	        -156.493
     982	  1.9872	 1.10114	        -3140.85	         2984.33	        -156.518
     983	 1.99022	 1.09144	        -3145.51	         2988.86	        -156.648
     984	  1.9944	 1.07771	        -3151.92	         2995.12	        -156.796
     985	 1.99838	   1.064	        -3157.96	          3001.1	        -156.856
     986	 2.00156	  1.0522	        -3162.69	         3005.87	        -156.817
     987	 2.00414	 1.04173	        -3166.51	         3009.73	         -156.78
     988	 2.00631	 1.03205	        -3169.82	         3012.99	        -156.825
     989	 2.00769	 1.02455	        -3171.95	         3015.06	        -156.894
     990	  2.0077	  1.0211	        -3171.96	         3015.07	        -156.892
     991	 2.00636	 1.02174	        -3169.89	         3013.06	        -156.821
     992	 2.00431	 1.02461	        -3166.75	         3009.99	        -156.764
     993	 2.00216	 1.02788	        -3163.52	         3006.77	        -156.751
     994	 2.00033	 1.03044	        -3160.71	         3004.02	        -156.697
     995	  1.9996	  1.0301	        -3159.48	         3002.92	        -156.554
     996	 2.00127	 1.02291	        -3161.91	         3005.43	         -156.48
     997	 2.00582	 1.00731	        -3168.88	         3012.26	        -156.619
     998	 2.01192	0.987344	        -3178.25	         3021.41	        -156.837
     999	 2.01736	0.969581	        -3186.56	         3029.57	        -156.984
