    Step 	 temperature 	 pressure 	 Potential Energy 	 Kinetic Energy 	 Sum Energy

       0	 2.17655	-1.55616	        -5909.25	         5645.12	        -264.125
       1	 2.17662	-1.55279	        -5909.44	          5645.3	        -264.142
       2	 2.17676	-1.54249	        -5909.84	         5645.66	        -264.179
       3	  2.1768	-1.52473	        -5910.02	         5645.78	        -264.244
       4	 2.17644	-1.49858	        -5909.18	         5644.84	        -264.342
       5	 2.17521	-1.46267	        -5906.14	         5641.66	        -264.482
       6	 2.17247	-1.41509	        -5899.22	         5634.55	        -264.672
       7	 2.16733	-1.35334	        -5886.15	         5621.23	        -264.921
       8	 2.15867	-1.27427	           -5864	         5598.77	        -265.231
       9	 2.14511	-1.17422	        -5829.22	         5563.63	        -265.586
      10	 2.12519	-1.04942	        -5777.94	            5512	        -265.936
      11	 2.09765	-0.896901	        -5706.79	         5440.61	        -266.187
      12	 2.06195	-0.716101	        -5614.31	         5348.09	        -266.224
      13	 2.01888	-0.510468	        -5502.44	         5236.45	        -265.983
      14	 1.97077	 -0.2882	        -5377.26	         5111.75	        -265.507
      15	  1.9212	-0.0612542	        -5248.19	         4983.26	        -264.924
      16	 1.87424	0.157017	        -5125.92	         4861.53	        -264.389
      17	 1.83349	0.354664	        -5019.95	         4755.92	        -264.033
      18	 1.80141	0.523391	        -4936.66	         4672.75	        -263.907
      19	 1.77893	0.659487	        -4878.47	         4614.49	        -263.978
      20	 1.76573	0.763296	        -4844.44	         4580.27	        -264.165
      21	 1.76064	0.837858	        -4831.49	         4567.09	        -264.398
      22	 1.76214	0.887566	        -4835.59	         4570.96	        -264.631
      23	 1.76863	0.917152	        -4852.63	         4587.81	        -264.823
      24	 1.77883	0.930789	        -4879.15	         4614.24	        -264.917
      25	 1.79198	0.931158	        -4913.22	         4648.33	        -264.896
      26	  1.8079	0.919334	        -4954.47	         4689.59	        -264.881
      27	 1.82633	0.896627	        -5002.38	         4737.36	        -265.013
      28	 1.84632	0.866528	        -5054.41	         4789.17	        -265.236
      29	 1.86642	0.833985	         -5106.7	         4841.26	        -265.446
      30	 1.88519	0.803754	        -5155.55	         4889.93	        -265.622
      31	 1.90152	0.779721	        -5197.98	         4932.24	        -265.736
      32	 1.91473	0.764346	        -5232.22	         4966.47	        -265.745
      33	 1.92481	0.758052	        -5258.27	         4992.61	        -265.656
      34	 1.93234	0.759414	        -5277.68	         5012.13	        -265.551
      35	 1.93801	0.766519	        -5292.36	         5026.83	        -265.528
      36	 1.94217	0.778431	        -5303.19	          5037.6	         -265.59
      37	 1.94474	0.795313	        -5309.93	         5044.27	        -265.658
      38	 1.94565	0.817345	         -5312.3	         5046.63	        -265.673
      39	 1.94508	0.843826	         -5310.8	         5045.15	        -265.641
      40	 1.94348	0.873244	        -5306.64	         5041.01	        -265.625
      41	 1.94121	0.904295	        -5300.84	         5035.13	        -265.707
      42	 1.93818	0.936991	        -5293.13	         5027.26	        -265.867
      43	 1.93395	0.972328	        -5282.27	          5016.3	        -265.971
      44	 1.92844	 1.01031	        -5267.92	         5002.01	        -265.905
      45	 1.92246	 1.04828	        -5252.18	         4986.51	        -265.665
      46	 1.91773	 1.08105	        -5239.61	         4974.25	        -265.357
      47	 1.91615	 1.10286	         -5235.4	         4970.17	        -265.225
      48	 1.91854	 1.11125	        -5241.78	         4976.36	        -265.422
      49	 1.92393	 1.10919	        -5256.09	         4990.33	        -265.756
      50	 1.93047	 1.10229	        -5273.26	         5007.28	        -265.985
      51	 1.93667	   1.095	        -5289.42	         5023.34	         -266.08
      52	 1.94177	 1.08961	        -5302.67	         5036.58	        -266.097
      53	 1.94561	 1.08677	        -5312.58	         5046.53	        -266.049
      54	  1.9485	 1.08574	        -5319.93	         5054.02	        -265.915
      55	 1.95126	 1.08429	        -5326.91	         5061.17	        -265.737
      56	 1.95487	 1.07959	         -5336.2	         5070.53	        -265.666
      57	 1.95974	 1.07055	        -5348.93	         5083.14	        -265.788
      58	 1.96527	 1.05909	        -5363.48	         5097.49	        -265.982
      59	 1.97047	 1.04842	        -5377.06	         5110.96	        -266.101
      60	 1.97456	 1.04089	        -5387.73	         5121.58	        -266.156
      61	 1.97712	 1.03786	        -5394.41	         5128.21	        -266.207
      62	 1.97784	 1.04029	         -5396.3	         5130.07	        -266.224
      63	 1.97668	 1.04839	         -5393.2	         5127.05	        -266.153
      64	 1.97406	  1.0609	        -5386.28	         5120.26	        -266.023
      65	 1.97071	 1.07557	        -5377.52	         5111.59	         -265.93
      66	 1.96723	 1.09066	        -5368.48	         5102.57	        -265.908
      67	 1.96382	 1.10546	        -5359.66	         5093.73	        -265.924
      68	  1.9605	 1.11989	        -5351.02	         5085.11	         -265.91
      69	 1.95742	 1.13346	        -5342.94	         5077.13	        -265.809
      70	 1.95512	 1.14449	        -5336.86	         5071.18	        -265.687
      71	 1.95417	 1.15121	        -5334.39	         5068.71	        -265.679
      72	 1.95456	 1.15359	         -5335.5	         5069.73	        -265.765
      73	 1.95582	  1.1531	        -5338.79	         5072.99	        -265.798
      74	 1.95767	 1.15053	        -5343.51	         5077.79	        -265.714
      75	 1.96041	 1.14503	        -5350.49	         5084.89	        -265.598
      76	 1.96449	 1.13524	        -5361.04	         5095.46	        -265.579
      77	 1.96989	 1.12125	        -5375.17	         5109.47	        -265.694
      78	 1.97593	 1.10518	        -5390.98	         5125.11	        -265.873
      79	 1.98155	 1.09013	        -5405.71	         5139.69	        -266.013
      80	 1.98595	 1.07861	        -5417.13	         5151.08	        -266.059
      81	 1.98879	  1.0716	        -5424.48	         5158.45	        -266.023
      82	 1.99027	 1.06866	        -5428.25	         5162.29	        -265.961
      83	 1.99077	 1.06873	        -5429.49	         5163.57	        -265.915
      84	 1.99062	 1.07088	        -5429.09	          5163.2	        -265.884
      85	  1.9901	 1.07441	        -5427.72	         5161.84	        -265.875
      86	 1.98929	 1.07899	        -5425.65	         5159.74	        -265.912
      87	 1.98806	 1.08501	         -5422.5	         5156.56	        -265.945
      88	 1.98631	 1.09276	        -5417.94	         5152.03	        -265.912
      89	 1.98419	 1.10171	        -5412.39	         5146.52	        -265.876
      90	 1.98183	 1.11131	        -5406.32	          5140.4	        -265.919
      91	 1.97904	 1.12204	        -5399.18	         5133.18	        -265.998
      92	 1.97547	 1.13488	        -5389.96	         5123.92	        -266.044
      93	 1.97092	  1.1502	        -5378.18	         5112.13	        -266.048
      94	 1.96552	 1.16753	        -5364.14	         5098.14	        -265.997
      95	 1.95979	 1.18526	        -5349.13	         5083.28	        -265.848
      96	  1.9548	 1.20016	        -5335.94	         5070.35	        -265.597
      97	  1.9521	 1.20759	         -5328.7	         5063.35	        -265.349
      98	  1.9531	 1.20333	        -5331.22	         5065.95	        -265.268
      99	  1.9582	 1.18623	        -5344.59	         5079.16	        -265.426
     100	 1.96643	 1.15923	        -5366.22	          5100.5	        -265.721
     101	 1.97598	 1.12789	        -5391.25	         5125.24	        -266.012
     102	 1.98493	 1.09802	        -5414.67	         5148.45	        -266.218
     103	 1.99189	 1.07401	        -5432.77	         5166.48	         -266.29
     104	 1.99623	 1.05791	        -5443.96	         5177.74	        -266.225
     105	 1.99815	 1.04933	         -5448.8	         5182.71	        -266.085
     106	 1.99835	 1.04633	        -5449.16	         5183.23	        -265.931
     107	 1.99769	 1.04644	        -5447.31	         5181.51	        -265.795
     108	 1.99696	 1.04732	        -5445.33	         5179.63	          -265.7
     109	 1.99675	 1.04724	        -5444.75	         5179.09	        -265.654
     110	 1.99736	 1.04528	        -5446.31	         5180.65	        -265.657
     111	 1.99874	 1.04147	        -5449.97	         5184.25	        -265.726
     112	  2.0005	 1.03702	        -5454.65	          5188.8	        -265.853
     113	 2.00191	 1.03406	        -5458.42	         5192.44	         -265.98
     114	 2.00223	 1.03476	        -5459.36	          5193.3	        -266.068
     115	 2.00097	 1.04062	        -5456.15	         5190.03	        -266.119
     116	 1.99788	 1.05232	        -5448.15	         5182.02	        -266.131
     117	 1.99302	 1.06967	         -5435.5	         5169.41	        -266.091
     118	  1.9868	 1.09136	        -5419.26	         5153.28	         -265.98
     119	 1.98005	 1.11485	        -5401.59	         5135.79	        -265.802
     120	 1.97393	  1.1366	        -5385.57	         5119.94	        -265.622
     121	 1.96957	 1.15323	        -5374.15	         5108.62	        -265.528
     122	 1.96753	 1.16297	        -5368.92	         5103.34	        -265.572
     123	 1.96759	 1.16645	        -5369.28	         5103.51	        -265.772
     124	 1.96868	  1.1668	        -5372.39	         5106.32	        -266.075
     125	 1.96925	 1.16861	        -5374.13	         5107.79	        -266.338
     126	 1.96812	 1.17546	        -5371.26	         5104.88	        -266.383
     127	 1.96531	 1.18737	        -5363.83	         5097.59	        -266.244
     128	 1.96168	 1.20164	        -5354.35	         5088.18	        -266.168
     129	 1.95796	 1.21618	        -5344.65	         5078.53	        -266.116
     130	 1.95469	 1.22935	        -5336.05	         5070.07	        -265.978
     131	 1.95272	  1.2386	        -5330.75	         5064.94	        -265.804
     132	 1.95295	 1.24109	        -5331.26	         5065.55	        -265.713
     133	 1.95575	 1.23567	        -5338.66	         5072.81	        -265.844
     134	 1.96028	 1.22477	        -5350.72	         5084.56	        -266.159
     135	 1.96477	 1.21364	        -5362.64	         5096.19	        -266.451
     136	 1.96757	 1.20713	        -5369.98	         5103.45	        -266.536
     137	  1.9682	  1.2067	        -5371.44	         5105.08	        -266.367
     138	 1.96752	 1.20974	        -5369.43	         5103.31	        -266.122
     139	 1.96674	 1.21249	        -5367.38	          5101.3	        -266.076
     140	 1.96622	 1.21388	        -5366.14	         5099.95	         -266.19
     141	 1.96552	 1.21516	        -5364.37	         5098.14	         -266.23
     142	 1.96461	 1.21643	        -5361.81	         5095.77	        -266.042
     143	 1.96463	 1.21437	        -5361.48	         5095.81	        -265.662
     144	 1.96751	 1.20326	        -5368.72	         5103.28	        -265.443
     145	 1.97416	  1.1804	        -5386.19	         5120.53	        -265.665
     146	  1.9833	 1.14996	        -5410.24	         5144.21	        -266.031
     147	 1.99268	 1.11887	        -5434.74	         5168.53	        -266.215
     148	 2.00077	 1.09178	        -5455.76	         5189.51	        -266.254
     149	 2.00688	 1.07091	        -5471.61	         5205.34	        -266.269
     150	 2.01066	  1.0575	        -5481.38	         5215.12	        -266.261
     151	   2.012	 1.05203	         -5484.8	          5218.6	          -266.2
     152	 2.01115	  1.0538	        -5482.51	          5216.4	        -266.106
     153	 2.00863	 1.06127	        -5475.87	         5209.86	        -266.004
     154	 2.00505	 1.07249	        -5466.51	          5200.6	        -265.909
     155	 2.00106	 1.08544	        -5456.09	         5190.27	        -265.826
     156	 1.99726	 1.09823	        -5446.15	          5180.4	        -265.751
     157	 1.99414	 1.10917	        -5438.05	         5172.33	        -265.729
     158	 1.99187	 1.11754	        -5432.29	         5166.44	        -265.849
     159	  1.9899	 1.12473	        -5427.41	         5161.34	        -266.072
     160	  1.9873	  1.1334	        -5420.77	         5154.59	        -266.183
     161	 1.98374	 1.14437	        -5411.42	         5145.37	        -266.059
     162	 1.98003	 1.15507	         -5401.6	         5135.74	        -265.863
     163	 1.97726	 1.16201	        -5394.39	         5128.57	        -265.816
     164	 1.97586	 1.16394	        -5390.78	         5124.94	        -265.844
     165	 1.97577	 1.16108	        -5390.47	         5124.69	        -265.783
     166	 1.97718	 1.15283	        -5394.02	         5128.36	        -265.658
     167	 1.98057	 1.13785	        -5402.73	         5137.14	        -265.585
     168	 1.98611	  1.1158	        -5417.13	         5151.49	         -265.64
     169	 1.99329	 1.08841	        -5435.89	         5170.12	        -265.777
     170	 2.00118	 1.05875	        -5456.45	         5190.57	        -265.882
     171	 2.00892	 1.02964	        -5476.57	         5210.63	        -265.942
     172	 2.01586	 1.00319	        -5494.63	         5228.62	        -266.012
     173	 2.02142	0.981355	        -5509.11	         5243.02	        -266.087
     174	 2.02508	0.965822	        -5518.64	          5252.5	         -266.14
     175	 2.02652	0.957582	         -5522.4	         5256.23	        -266.165
     176	 2.02569	0.956731	        -5520.24	         5254.09	        -266.147
     177	 2.02291	0.962273	        -5512.94	         5246.88	        -266.061
     178	 2.01895	0.971777	        -5502.52	         5236.63	        -265.889
     179	 2.01513	0.981325	        -5492.39	         5226.72	        -265.672
     180	 2.01294	0.986406	        -5486.56	         5221.03	        -265.522
     181	 2.01339	0.983976	        -5487.78	         5222.22	        -265.562
     182	 2.01632	0.974534	        -5495.61	          5229.8	        -265.809
     183	 2.02038	0.962178	        -5506.35	         5240.33	        -266.026
     184	 2.02418	  0.9511	        -5516.28	         5250.19	         -266.09
     185	   2.027	0.943418	        -5523.62	          5257.5	        -266.128
     186	 2.02842	0.940437	        -5527.36	         5261.16	        -266.194
     187	 2.02804	0.943383	        -5526.42	          5260.2	        -266.219
     188	 2.02584	0.952455	        -5520.62	         5254.49	        -266.128
     189	 2.02241	0.965888	        -5511.56	          5245.6	        -265.959
     190	 2.01874	0.980676	        -5501.93	         5236.07	        -265.855
     191	 2.01545	 0.99482	        -5493.49	         5227.56	        -265.928
     192	 2.01227	 1.00904	        -5485.47	         5219.31	        -266.159
     193	 2.00807	 1.02643	        -5474.84	         5208.43	        -266.409
     194	  2.0017	 1.05024	        -5458.41	         5191.92	        -266.491
     195	 1.99292	 1.08092	        -5435.47	         5169.16	        -266.307
     196	 1.98295	 1.11464	        -5409.24	         5143.31	        -265.933
     197	 1.97401	 1.14459	        -5385.69	         5120.14	        -265.554
     198	 1.96835	 1.16392	         -5370.8	         5105.48	        -265.321
     199	 1.96736	 1.16843	        -5368.21	          5102.9	         -265.31
     200	 1.97104	 1.15799	        -5377.96	         5112.44	        -265.524
     201	 1.97807	 1.13648	        -5396.51	         5130.67	        -265.841
     202	  1.9865	 1.10979	        -5418.62	         5152.52	        -266.098
     203	  1.9946	 1.08316	        -5439.73	         5173.52	        -266.214
     204	 2.00141	 1.05964	        -5457.36	         5191.16	        -266.198
     205	 2.00673	 1.04009	        -5471.07	         5204.95	        -266.119
     206	 2.01073	 1.02419	        -5481.41	         5215.33	        -266.085
     207	 2.01345	 1.01204	         -5488.5	         5222.36	        -266.136
     208	  2.0146	  1.0046	         -5491.5	         5225.35	         -266.15
     209	 2.01421	 1.00197	        -5490.32	         5224.35	        -265.971
     210	 2.01321	 1.00146	        -5487.44	         5221.74	        -265.696
     211	 2.01287	0.999159	        -5486.45	         5220.86	         -265.59
     212	 2.01368	0.993677	        -5488.62	         5222.97	        -265.655
     213	 2.01523	0.986324	        -5492.75	         5226.97	         -265.78
     214	  2.0167	0.979435	        -5496.72	         5230.79	        -265.925
     215	 2.01731	 0.97537	        -5498.41	         5232.37	        -266.039
     216	 2.01656	0.975604	        -5496.49	         5230.43	        -266.067
     217	 2.01456	0.979878	        -5491.25	         5225.26	        -265.994
     218	 2.01202	0.986153	        -5484.56	         5218.65	        -265.903
     219	 2.00975	0.992016	        -5478.64	         5212.78	        -265.863
     220	 2.00835	0.995881	        -5474.98	         5209.15	        -265.833
     221	 2.00812	0.996888	        -5474.41	         5208.54	         -265.87
     222	 2.00883	0.995697	        -5476.39	         5210.39	        -265.997
     223	 2.00973	0.994653	        -5478.83	         5212.73	        -266.106
     224	 2.00994	0.996292	        -5479.47	         5213.28	        -266.196
     225	 2.00867	 1.00287	        -5476.26	         5209.99	        -266.274
     226	 2.00532	 1.01614	        -5467.57	         5201.29	        -266.275
     227	  1.9998	 1.03625	        -5453.14	         5186.98	        -266.162
     228	 1.99272	 1.06126	        -5434.63	         5168.64	        -265.981
     229	 1.98516	 1.08789	        -5414.87	         5149.04	        -265.832
     230	 1.97806	 1.11313	        -5396.42	         5130.63	        -265.791
     231	 1.97184	 1.13552	        -5380.38	         5114.52	        -265.858
     232	 1.96643	 1.15514	        -5366.41	          5100.5	        -265.916
     233	 1.96183	 1.17189	        -5354.39	         5088.57	        -265.825
     234	 1.95867	 1.18369	        -5346.05	         5080.39	        -265.664
     235	 1.95779	 1.18786	        -5343.76	          5078.1	        -265.655
     236	 1.95926	 1.18411	        -5347.67	          5081.9	        -265.777
     237	 1.96238	 1.17448	        -5355.88	         5089.98	        -265.896
     238	 1.96633	 1.16135	        -5366.21	         5100.23	        -265.974
     239	 1.97049	 1.14659	        -5377.04	         5111.01	        -266.028
     240	 1.97434	  1.1317	        -5387.11	         5121.01	        -266.102
     241	 1.97739	 1.11827	        -5395.09	         5128.91	        -266.176
     242	 1.97926	 1.10757	        -5399.89	         5133.73	        -266.151
     243	 1.98016	 1.09913	        -5402.03	         5136.08	        -265.956
     244	 1.98122	 1.08983	         -5404.5	         5138.83	        -265.668
     245	 1.98392	 1.07543	        -5411.33	         5145.82	        -265.517
     246	 1.98894	 1.05404	        -5424.45	         5158.85	        -265.605
     247	 1.99573	 1.02761	        -5442.22	         5176.44	        -265.771
     248	 2.00315	0.999678	        -5461.54	         5195.67	        -265.864
     249	 2.01032	0.972929	        -5480.14	         5214.26	        -265.881
     250	 2.01679	0.948809	        -5496.88	         5231.02	        -265.862
     251	 2.02236	0.927966	         -5511.3	         5245.47	        -265.823
     252	 2.02705	0.910506	        -5523.41	         5257.63	        -265.776
     253	 2.03096	0.896218	        -5533.49	         5267.74	        -265.748
     254	  2.0341	0.885041	        -5541.68	          5275.9	        -265.776
     255	 2.03629	0.877601	        -5547.44	         5281.57	        -265.866
     256	 2.03704	0.875305	        -5549.48	          5283.5	         -265.98
     257	  2.0358	0.879709	        -5546.34	         5280.29	        -266.054
     258	 2.03229	0.891539	        -5537.25	          5271.2	        -266.053
     259	 2.02669	0.910136	        -5522.68	         5256.69	        -265.985
     260	 2.01963	0.933542	        -5504.24	         5238.38	        -265.867
     261	 2.01202	0.958887	        -5484.39	         5218.65	        -265.739
     262	 2.00483	0.983158	        -5465.69	         5200.02	        -265.677
     263	 1.99867	 1.00442	        -5449.77	         5184.05	        -265.728
     264	 1.99353	 1.02258	        -5436.59	         5170.74	        -265.854
     265	 1.98901	  1.0388	        -5424.97	         5159.01	        -265.962
     266	 1.98468	 1.05421	        -5413.81	          5147.8	        -266.007
     267	 1.98043	  1.0691	        -5402.79	         5136.78	        -266.003
     268	  1.9764	 1.08301	        -5392.27	         5126.33	        -265.935
     269	 1.97308	 1.09449	        -5383.52	         5117.73	        -265.784
     270	 1.97132	 1.10103	        -5378.79	         5113.16	        -265.634
     271	 1.97186	 1.10034	        -5380.16	         5114.58	        -265.586
     272	 1.97491	 1.09188	        -5388.13	         5122.47	        -265.655
     273	 1.97996	 1.07719	        -5401.36	         5135.57	        -265.799
     274	 1.98609	 1.05909	         -5417.4	         5151.46	        -265.938
     275	 1.99238	 1.04047	        -5433.78	         5167.75	        -266.029
     276	 1.99814	 1.02343	        -5448.78	         5182.69	         -266.09
     277	   2.003	 1.00932	        -5461.39	         5195.28	        -266.106
     278	 2.00698	0.998379	        -5471.58	         5205.58	        -265.999
     279	 2.01067	0.989036	        -5481.04	         5215.15	        -265.893
     280	 2.01449	0.980044	        -5491.11	         5225.06	        -266.044
     281	  2.0177	0.973839	        -5499.65	         5233.38	        -266.269
     282	 2.01906	 0.97415	        -5503.24	          5236.9	        -266.336
     283	 2.01803	0.982422	        -5500.48	         5234.23	        -266.255
     284	 2.01497	0.997424	        -5492.39	         5226.31	        -266.081
     285	 2.01082	  1.0162	         -5481.5	         5215.55	        -265.945
     286	 2.00639	 1.03604	        -5470.02	         5204.07	        -265.955
     287	 2.00186	 1.05617	        -5458.39	         5192.34	        -266.057
     288	   1.997	 1.07708	        -5445.84	         5179.74	        -266.099
     289	 1.99187	 1.09841	        -5432.42	         5166.43	        -265.985
     290	 1.98729	  1.1176	        -5420.32	         5154.57	        -265.751
     291	 1.98463	 1.13062	        -5413.22	         5147.66	        -265.565
     292	 1.98485	 1.13458	        -5413.86	         5148.24	        -265.617
     293	 1.98763	  1.1306	        -5421.35	         5155.45	        -265.899
     294	 1.99136	 1.12362	        -5431.33	         5165.11	        -266.217
     295	 1.99414	 1.11934	        -5438.72	         5172.31	         -266.41
     296	 1.99471	  1.1215	        -5440.23	         5173.81	        -266.425
     297	 1.99287	 1.13076	        -5435.32	         5169.01	        -266.303
     298	 1.98919	 1.14529	        -5425.65	         5159.49	        -266.156
     299	 1.98453	 1.16248	        -5413.49	         5147.41	        -266.081
     300	 1.97947	 1.18046	        -5400.36	         5134.28	        -266.076
     301	 1.97432	 1.19813	        -5386.97	         5120.94	        -266.035
     302	 1.96966	 1.21373	        -5374.71	         5108.85	        -265.862
     303	  1.9666	 1.22383	         -5366.6	         5100.92	        -265.681
     304	 1.96614	 1.22534	        -5365.42	         5099.73	         -265.69
     305	 1.96826	 1.21836	        -5371.07	         5105.24	         -265.83
     306	 1.97209	  1.2056	        -5381.17	         5115.15	        -266.015
     307	 1.97634	 1.19082	        -5392.39	         5126.18	        -266.211
     308	 1.97973	 1.17788	        -5401.33	         5134.97	        -266.354
     309	 1.98134	 1.16959	        -5405.51	         5139.15	        -266.365
     310	 1.98108	 1.16633	        -5404.66	         5138.46	        -266.208
     311	 1.97978	 1.16564	        -5401.05	         5135.08	        -265.966
     312	 1.97875	 1.16369	        -5398.19	         5132.41	        -265.776
     313	 1.97909	 1.15737	        -5398.94	          5133.3	        -265.647
     314	 1.98148	 1.14477	         -5405.1	         5139.51	        -265.587
     315	 1.98609	 1.12552	        -5417.14	         5151.46	        -265.682
     316	 1.99222	 1.10179	        -5433.25	         5167.33	        -265.917
     317	 1.99847	 1.07788	        -5449.67	         5183.53	        -266.139
     318	 2.00351	 1.05794	        -5462.82	         5196.59	        -266.224
     319	  2.0067	 1.04397	        -5471.05	         5204.87	         -266.18
     320	 2.00815	  1.0358	        -5474.72	         5208.64	        -266.083
     321	 2.00831	 1.03223	        -5475.06	         5209.04	        -266.018
     322	 2.00751	 1.03227	        -5472.98	         5206.97	        -266.011
     323	 2.00584	 1.03565	        -5468.67	         5202.64	        -266.026
     324	  2.0033	 1.04227	        -5462.08	         5196.05	        -266.033
     325	 1.99999	 1.05167	        -5453.46	         5187.47	         -265.99
     326	 1.99638	 1.06241	        -5443.97	         5178.12	        -265.848
     327	 1.99345	 1.07153	        -5436.19	         5170.53	        -265.661
     328	 1.99226	 1.07575	        -5433.07	         5167.45	        -265.619
     329	 1.99306	 1.07426	        -5435.31	         5169.52	        -265.791
     330	  1.9949	 1.06977	        -5440.33	         5174.27	        -266.052
     331	 1.99629	 1.06662	        -5444.11	         5177.89	        -266.224
     332	 1.99619	 1.06783	        -5443.85	         5177.64	        -266.214
     333	 1.99451	 1.07361	        -5439.37	         5173.28	        -266.088
     334	 1.99187	 1.08207	        -5432.39	         5166.43	        -265.952
     335	  1.9891	 1.09084	        -5425.09	         5159.24	        -265.845
     336	 1.98692	 1.09782	        -5419.37	         5153.59	        -265.784
     337	 1.98579	  1.1017	        -5416.48	         5150.68	        -265.806
     338	  1.9857	 1.10253	        -5416.39	         5150.44	        -265.949
     339	 1.98596	 1.10231	        -5417.28	          5151.1	        -266.174
     340	 1.98549	 1.10425	        -5416.23	          5149.9	        -266.331
     341	  1.9836	 1.11043	        -5411.32	            5145	        -266.316
     342	 1.98045	 1.12029	        -5403.02	         5136.84	        -266.179
     343	 1.97688	  1.1313	         -5393.6	         5127.57	        -266.029
     344	 1.97381	  1.1406	        -5385.56	         5119.63	        -265.929
     345	 1.97192	 1.14621	        -5380.61	         5114.72	        -265.881
     346	 1.97143	 1.14731	        -5379.38	         5113.44	        -265.943
     347	  1.9719	 1.14506	        -5380.78	         5114.67	         -266.11
     348	 1.97242	  1.1422	        -5382.24	         5116.02	        -266.222
     349	 1.97232	 1.14075	        -5381.96	         5115.77	        -266.189
     350	 1.97168	 1.14053	         -5380.2	         5114.11	        -266.089
     351	 1.97097	 1.14019	        -5378.29	         5112.27	        -266.027
     352	 1.97055	 1.13874	        -5377.18	         5111.18	        -266.002
     353	 1.97062	  1.1357	        -5377.29	         5111.36	         -265.93
     354	 1.97155	 1.13005	        -5379.58	         5113.76	         -265.82
     355	 1.97377	 1.12048	        -5385.32	         5119.52	        -265.806
     356	  1.9772	 1.10726	        -5394.36	         5128.41	         -265.95
     357	 1.98097	 1.09307	        -5404.34	         5138.18	        -266.157
     358	 1.98388	 1.08155	        -5412.01	         5145.72	        -266.289
     359	 1.98517	 1.07502	        -5415.32	         5149.06	        -266.262
     360	 1.98497	 1.07317	        -5414.65	         5148.55	        -266.102
     361	 1.98413	 1.07348	        -5412.31	         5146.36	        -265.955
     362	 1.98347	 1.07349	        -5410.56	         5144.66	        -265.899
     363	 1.98343	   1.072	        -5410.41	         5144.54	        -265.868
     364	 1.98418	 1.06841	        -5412.36	          5146.5	        -265.854
     365	 1.98576	 1.06258	         -5416.5	          5150.6	        -265.897
     366	 1.98789	 1.05526	        -5422.11	         5156.13	        -265.979
     367	 1.99011	 1.04783	        -5427.92	         5161.88	         -266.04
     368	 1.99206	 1.04139	        -5432.97	         5166.94	        -266.032
     369	  1.9937	 1.03608	        -5437.19	         5171.18	        -266.003
     370	 1.99509	 1.03172	        -5440.82	         5174.77	        -266.049
     371	   1.996	 1.02902	        -5443.27	         5177.13	        -266.133
     372	 1.99612	 1.02898	        -5443.59	         5177.45	        -266.141
     373	 1.99545	 1.03153	        -5441.83	          5175.7	        -266.126
     374	  1.9941	 1.03617	        -5438.36	          5172.2	         -266.16
     375	 1.99206	  1.0429	        -5433.06	         5166.93	        -266.129
     376	 1.98964	 1.05084	        -5426.64	         5160.66	        -265.978
     377	 1.98764	  1.0575	         -5421.3	         5155.47	        -265.831
     378	 1.98679	 1.06064	        -5419.09	         5153.27	        -265.821
     379	 1.98712	 1.06026	        -5420.05	         5154.12	        -265.931
     380	 1.98796	 1.05835	        -5422.37	          5156.3	        -266.066
     381	 1.98845	  1.0575	        -5423.74	         5157.57	        -266.165
     382	  1.9879	 1.05973	        -5422.38	         5156.15	        -266.229
     383	 1.98587	  1.0663	        -5417.16	         5150.87	        -266.287
     384	 1.98208	 1.07791	        -5407.37	         5141.06	         -266.31
     385	 1.97672	 1.09404	        -5393.31	         5127.17	        -266.143
     386	 1.97105	 1.11102	        -5378.22	         5112.45	        -265.764
     387	 1.96712	  1.1224	        -5367.87	         5102.29	        -265.578
     388	 1.96607	 1.12483	        -5365.25	         5099.56	        -265.692
     389	 1.96753	 1.11962	        -5369.11	         5103.34	        -265.773
     390	 1.97092	 1.10851	        -5377.95	         5112.14	        -265.811
     391	 1.97575	 1.09295	        -5390.61	         5124.66	        -265.957
     392	 1.98101	 1.07605	        -5404.49	         5138.28	        -266.207
     393	 1.98529	 1.06218	         -5415.7	         5149.38	        -266.323
     394	 1.98782	 1.05378	        -5422.15	         5155.93	        -266.221
     395	 1.98886	 1.05002	        -5424.71	         5158.62	        -266.089
     396	 1.98896	 1.04923	        -5424.91	          5158.9	        -266.007
     397	 1.98854	 1.05026	        -5423.75	          5157.8	        -265.947
     398	 1.98784	 1.05227	        -5421.92	         5155.99	        -265.932
     399	 1.98693	 1.05493	        -5419.58	         5153.62	        -265.957
     400	 1.98572	  1.0584	        -5416.45	         5150.49	        -265.958
     401	 1.98428	 1.06242	        -5412.65	         5146.76	        -265.887
     402	 1.98305	 1.06564	        -5409.31	         5143.56	        -265.747
     403	 1.98278	 1.06577	        -5408.47	         5142.88	        -265.591
     404	 1.98429	 1.06047	        -5412.28	         5146.77	        -265.503
     405	 1.98791	 1.04872	        -5421.71	         5156.17	        -265.536
     406	  1.9933	 1.03164	        -5435.81	         5170.14	        -265.669
     407	  1.9995	 1.01214	        -5452.03	          5186.2	        -265.828
     408	 2.00535	0.993674	        -5467.33	         5201.38	        -265.943
     409	 2.00997	0.978994	        -5479.31	         5213.34	        -265.976
     410	 2.01292	0.969397	        -5486.92	            5221	        -265.927
     411	 2.01433	0.964619	        -5490.48	         5224.66	        -265.817
     412	 2.01474	0.963186	         -5491.4	         5225.71	         -265.69
     413	 2.01479	0.963225	        -5491.46	         5225.84	        -265.623
     414	 2.01484	0.963705	        -5491.66	         5225.98	        -265.682
     415	 2.01465	0.965406	        -5491.31	         5225.47	        -265.844
     416	 2.01345	0.970562	        -5488.37	         5222.36	        -266.011
     417	 2.01051	0.981287	        -5480.83	         5214.75	        -266.079
     418	 2.00573	0.997903	        -5468.34	         5202.35	        -265.984
     419	 1.99989	 1.01803	        -5452.97	         5187.21	        -265.761
     420	 1.99442	 1.03734	        -5438.62	         5173.03	        -265.586
     421	 1.99042	  1.0524	        -5428.32	         5162.68	        -265.636
     422	 1.98787	 1.06322	        -5421.89	         5156.07	         -265.82
     423	 1.98599	 1.07206	        -5417.11	          5151.2	        -265.908
     424	 1.98431	 1.08015	        -5412.72	         5146.84	        -265.882
     425	 1.98282	 1.08729	        -5408.89	         5142.98	        -265.908
     426	 1.98137	 1.09381	        -5405.24	         5139.22	        -266.018
     427	 1.97955	 1.10098	        -5400.55	         5134.49	        -266.062
     428	 1.97731	 1.10889	        -5394.64	          5128.7	        -265.946
     429	 1.97545	 1.11522	        -5389.63	         5123.87	        -265.758
     430	  1.9751	 1.11658	        -5388.61	         5122.96	        -265.657
     431	  1.9769	 1.11108	        -5393.36	         5127.64	        -265.723
     432	 1.98054	 1.09973	        -5403.01	         5137.08	        -265.931
     433	 1.98488	 1.08604	        -5414.45	          5148.3	        -266.149
     434	 1.98863	  1.0739	        -5424.27	         5158.03	        -266.248
     435	 1.99111	 1.06553	        -5430.66	         5164.45	        -266.208
     436	 1.99238	 1.06093	        -5433.84	         5167.74	        -266.095
     437	 1.99291	  1.0588	        -5435.14	         5169.13	        -266.002
     438	 1.99316	 1.05796	        -5435.73	         5169.77	        -265.963
     439	 1.99331	 1.05788	        -5436.12	         5170.17	        -265.947
     440	 1.99342	 1.05835	         -5436.4	         5170.46	        -265.946
     441	 1.99346	 1.05935	        -5436.54	         5170.56	        -265.973
     442	 1.99329	 1.06118	        -5436.13	         5170.11	        -266.019
     443	  1.9927	 1.06426	        -5434.64	         5168.59	        -266.042
     444	 1.99169	 1.06859	        -5431.94	         5165.96	         -265.98
     445	 1.99067	 1.07285	        -5429.14	         5163.32	        -265.819
     446	  1.9905	 1.07448	        -5428.57	         5162.89	        -265.687
     447	 1.99178	 1.07166	        -5431.96	          5166.2	        -265.763
     448	   1.994	 1.06588	        -5438.01	         5171.96	        -266.055
     449	 1.99556	 1.06192	        -5442.36	            5176	        -266.363
     450	 1.99476	 1.06483	        -5440.41	         5173.92	         -266.49
     451	 1.99085	 1.07673	        -5430.19	         5163.79	        -266.399
     452	 1.98432	 1.09607	        -5413.03	         5146.86	        -266.173
     453	 1.97654	 1.11869	        -5392.59	          5126.7	        -265.889
     454	 1.96939	 1.13907	        -5373.73	         5108.17	        -265.558
     455	 1.96504	 1.15087	        -5362.09	         5096.88	        -265.205
     456	 1.96554	 1.14797	        -5363.22	         5098.18	        -265.036
     457	 1.97172	 1.12792	        -5379.45	         5114.19	        -265.256
     458	 1.98222	 1.09483	        -5407.15	         5141.42	        -265.723
     459	 1.99422	 1.05725	        -5438.68	         5172.53	        -266.149
     460	 2.00498	 1.02348	        -5466.75	          5200.4	        -266.345
     461	 2.01292	 0.99831	        -5487.31	         5220.99	        -266.326
     462	 2.01774	0.982855	        -5499.71	         5233.48	        -266.224
     463	 2.01973	0.976435	         -5504.8	         5238.64	         -266.16
     464	 2.01913	0.978406	        -5503.28	          5237.1	        -266.182
     465	 2.01589	0.988926	        -5494.94	         5228.69	        -266.252
     466	 2.00981	  1.0084	         -5479.2	         5212.93	        -266.268
     467	 2.00112	 1.03599	        -5456.53	         5190.41	        -266.128
     468	 1.99092	 1.06821	        -5429.81	         5163.97	        -265.839
     469	 1.98106	 1.09928	        -5403.97	         5138.42	        -265.548
     470	 1.97337	 1.12355	        -5383.91	         5118.48	        -265.421
     471	 1.96875	 1.13812	        -5372.01	         5106.51	        -265.499
     472	 1.96696	 1.14352	        -5367.56	         5101.88	        -265.679
     473	 1.96717	 1.14221	         -5368.2	          5102.4	          -265.8
     474	 1.96873	 1.13608	        -5372.24	         5106.45	        -265.788
     475	 1.97162	 1.12533	        -5379.65	         5113.93	         -265.72
     476	 1.97603	  1.1095	         -5391.1	         5125.37	        -265.734
     477	  1.9817	 1.08953	        -5405.98	         5140.08	        -265.893
     478	 1.98762	 1.06864	        -5421.53	         5155.41	        -266.124
     479	 1.99238	  1.0511	        -5434.01	         5167.75	        -266.265
     480	 1.99509	 1.03969	        -5440.98	         5174.78	        -266.208
     481	 1.99593	 1.03396	        -5442.93	         5176.95	        -265.977
     482	 1.99602	 1.03068	        -5442.91	         5177.19	        -265.717
     483	 1.99666	 1.02608	        -5444.44	         5178.85	        -265.595
     484	 1.99845	 1.01847	        -5449.13	         5183.47	        -265.659
     485	   2.001	 1.00906	        -5455.92	         5190.09	        -265.829
     486	 2.00334	 1.00083	        -5462.15	         5196.15	        -265.996
     487	 2.00446	0.996775	        -5465.17	         5199.06	        -266.105
     488	 2.00369	0.998853	        -5463.24	         5197.08	        -266.162
     489	 2.00074	 1.00791	         -5455.6	         5189.42	        -266.185
     490	  1.9956	 1.02383	        -5442.28	         5176.11	        -266.171
     491	 1.98864	 1.04547	        -5424.14	         5158.06	         -266.08
     492	 1.98068	 1.07026	        -5403.32	         5137.42	        -265.906
     493	 1.97296	 1.09434	        -5383.14	         5117.41	        -265.737
     494	 1.96663	 1.11409	         -5366.7	         5101.02	        -265.686
     495	 1.96219	 1.12792	        -5355.28	          5089.5	        -265.783
     496	 1.95927	 1.13675	        -5347.89	         5081.93	        -265.956
     497	  1.9571	 1.14279	        -5342.38	         5076.32	        -266.064
     498	 1.95526	 1.14728	        -5337.55	         5071.54	        -266.008
     499	 1.95416	 1.14895	        -5334.52	          5068.7	        -265.826
     500	 1.95489	 1.14463	        -5336.25	         5070.59	        -265.657
     501	 1.95843	 1.13152	        -5345.41	         5079.75	        -265.657
     502	 1.96478	 1.10962	         -5362.1	         5096.22	        -265.883
     503	 1.97274	 1.08264	        -5383.06	         5116.85	        -266.208
     504	 1.98054	   1.056	        -5403.48	         5137.06	        -266.414
     505	   1.987	 1.03342	        -5420.17	         5153.81	        -266.364
     506	 1.99219	 1.01487	        -5433.47	         5167.26	        -266.211
     507	 1.99655	0.999015	        -5444.88	         5178.57	        -266.303
     508	 1.99952	0.987763	        -5452.76	         5186.25	        -266.509
     509	 1.99995	0.984548	        -5453.93	         5187.39	         -266.54
     510	 1.99749	 0.99026	        -5447.47	         5181.01	        -266.461
     511	 1.99252	 1.00355	        -5434.45	         5168.12	        -266.335
     512	 1.98597	 1.02161	        -5417.19	         5151.14	        -266.051
     513	 1.97968	 1.03896	        -5400.45	         5134.83	        -265.616
     514	 1.97608	  1.0482	        -5390.84	          5125.5	        -265.348
     515	 1.97661	  1.0449	        -5392.36	         5126.88	        -265.474
     516	 1.98068	 1.03097	        -5403.21	         5137.43	        -265.777
     517	 1.98655	 1.01171	        -5418.61	         5152.63	        -265.974
     518	 1.99279	0.991444	        -5434.81	         5168.81	        -266.007
     519	 1.99876	0.972234	        -5450.27	         5184.29	        -265.978
     520	 2.00418	0.955094	        -5464.35	         5198.35	        -266.003
     521	 2.00861	 0.94157	        -5475.91	         5209.83	        -266.076
     522	 2.01143	0.933656	        -5483.26	         5217.14	        -266.122
     523	 2.01218	0.932733	        -5485.22	         5219.08	        -266.135
     524	 2.01064	0.939361	        -5481.24	         5215.09	        -266.154
     525	  2.0067	0.953686	        -5471.05	         5204.88	        -266.163
     526	 2.00049	0.975182	        -5454.85	         5188.77	        -266.081
     527	 1.99271	 1.00155	        -5434.46	         5168.61	        -265.851
     528	 1.98488	 1.02814	        -5413.86	         5148.31	        -265.551
     529	 1.97881	 1.04939	        -5397.95	         5132.57	        -265.378
     530	 1.97559	  1.0619	         -5389.7	         5124.24	        -265.463
     531	 1.97495	 1.06643	        -5388.31	         5122.57	        -265.744
     532	  1.9755	 1.06699	        -5390.04	         5124.01	        -266.035
     533	 1.97585	 1.06779	        -5391.01	          5124.9	         -266.11
     534	 1.97572	 1.06977	        -5390.47	         5124.57	        -265.902
     535	 1.97598	 1.07016	        -5391.09	         5125.24	        -265.846
     536	 1.97678	 1.06847	        -5393.38	         5127.31	        -266.066
     537	 1.97705	 1.06809	        -5394.15	         5128.01	        -266.141
     538	 1.97614	 1.07073	         -5391.7	         5125.66	        -266.038
     539	 1.97443	 1.07517	        -5387.07	         5121.22	         -265.85
     540	 1.97288	 1.07853	        -5382.84	         5117.22	        -265.614
     541	 1.97273	 1.07718	        -5382.28	         5116.83	        -265.445
     542	 1.97484	  1.0686	         -5387.7	         5122.28	        -265.419
     543	 1.97929	 1.05264	        -5399.32	         5133.82	        -265.494
     544	 1.98554	 1.03102	        -5415.68	         5150.03	        -265.651
     545	 1.99254	 1.00696	        -5434.06	         5168.17	        -265.886
     546	 1.99884	0.984833	        -5450.65	          5184.5	        -266.153
     547	 2.00293	0.969171	        -5461.46	         5195.09	        -266.365
     548	 2.00386	0.962932	        -5463.85	         5197.51	        -266.336
     549	 2.00232	0.964493	        -5459.37	         5193.51	        -265.857
     550	  2.0011	0.965617	        -5455.73	         5190.36	        -265.376
     551	 2.00244	0.959206	        -5459.52	         5193.84	        -265.683
     552	  2.0051	0.949439	        -5466.79	         5200.71	        -266.073
     553	 2.00679	0.943054	        -5471.18	         5205.11	        -266.071
     554	 2.00698	0.941361	        -5471.47	          5205.6	         -265.87
     555	 2.00643	0.942016	        -5469.83	         5204.17	        -265.663
     556	 2.00616	0.942056	        -5469.02	         5203.46	        -265.558
     557	 2.00676	0.939789	        -5470.58	         5205.02	        -265.564
     558	 2.00829	0.935149	        -5474.61	         5208.99	        -265.618
     559	 2.01053	0.928875	        -5480.47	         5214.81	        -265.659
     560	 2.01328	0.921683	        -5487.62	         5221.93	        -265.689
     561	 2.01632	0.914296	        -5495.56	          5229.8	        -265.768
     562	 2.01912	 0.90827	        -5503.01	         5237.07	         -265.94
     563	 2.02073	0.906509	         -5507.4	         5241.25	        -266.153
     564	 2.02005	0.912272	        -5505.74	         5239.48	        -266.262
     565	 2.01661	0.926914	         -5496.7	         5230.55	        -266.152
     566	  2.0111	0.948233	        -5482.17	         5216.28	        -265.891
     567	   2.005	0.971665	        -5466.16	         5200.45	        -265.705
     568	 1.99947	0.993593	        -5451.77	         5186.12	        -265.642
     569	 1.99502	  1.0124	        -5440.23	         5174.58	        -265.648
     570	 1.99161	 1.02792	         -5431.5	         5165.76	        -265.741
     571	  1.9888	 1.04132	        -5424.31	         5158.47	        -265.839
     572	  1.9861	 1.05385	        -5417.33	         5151.48	         -265.85
     573	 1.98348	 1.06544	        -5410.47	         5144.68	        -265.794
     574	 1.98129	 1.07488	        -5404.73	            5139	        -265.737
     575	 1.97995	  1.0808	        -5401.26	         5135.53	        -265.726
     576	 1.97968	 1.08253	         -5400.6	         5134.82	        -265.775
     577	 1.98041	 1.08023	        -5402.55	         5136.73	        -265.819
     578	 1.98219	 1.07396	        -5407.07	         5141.33	        -265.735
     579	 1.98559	 1.06218	        -5415.74	         5150.16	        -265.581
     580	 1.99124	 1.04308	        -5430.49	         5164.79	        -265.699
     581	 1.99833	 1.01916	        -5449.28	         5183.18	        -266.101
     582	 2.00472	0.997174	        -5466.13	         5199.73	        -266.401
     583	 2.00856	0.982656	        -5476.15	          5209.7	        -266.448
     584	 2.00937	0.977089	        -5478.13	          5211.8	        -266.327
     585	 2.00775	0.978781	        -5473.72	          5207.6	        -266.122
     586	 2.00491	0.984272	        -5466.11	         5200.22	        -265.888
     587	 2.00222	0.989507	        -5458.97	         5193.26	        -265.711
     588	 2.00071	0.991475	        -5455.03	         5189.34	        -265.691
     589	 2.00053	0.989729	        -5454.68	         5188.88	        -265.797
     590	 2.00115	0.985915	        -5456.39	          5190.5	        -265.893
     591	   2.002	0.981785	        -5458.62	         5192.69	        -265.926
     592	 2.00278	0.978221	        -5460.65	          5194.7	        -265.953
     593	 2.00327	0.975866	        -5461.99	         5195.98	        -266.013
     594	  2.0032	0.975626	        -5461.85	         5195.81	        -266.042
     595	 2.00251	0.977784	        -5459.97	            5194	        -265.968
     596	 2.00161	0.981105	         -5457.5	         5191.67	        -265.833
     597	 2.00124	0.983455	        -5456.44	         5190.71	        -265.735
     598	  2.0019	0.983344	         -5458.2	         5192.44	        -265.763
     599	 2.00345	0.981274	        -5462.36	         5196.44	        -265.921
     600	 2.00505	 0.97971	        -5466.69	         5200.59	        -266.104
     601	 2.00575	0.981485	        -5468.61	         5202.41	        -266.204
     602	 2.00503	0.988115	        -5466.74	         5200.54	          -266.2
     603	 2.00289	0.999468	        -5461.19	         5195.01	        -266.184
     604	 1.99948	 1.01503	        -5452.37	         5186.17	        -266.199
     605	 1.99493	 1.03442	        -5440.46	         5174.36	        -266.107
     606	 1.98989	 1.05559	        -5427.16	         5161.31	        -265.856
     607	 1.98577	 1.07426	        -5416.24	         5150.61	        -265.625
     608	 1.98378	 1.08661	        -5411.06	         5145.46	        -265.601
     609	 1.98414	 1.09199	        -5412.13	         5146.39	         -265.74
     610	 1.98613	 1.09251	        -5417.46	         5151.56	        -265.894
     611	  1.9888	 1.09097	        -5424.51	         5158.47	        -266.036
     612	  1.9912	 1.09009	        -5430.85	         5164.68	        -266.168
     613	  1.9925	 1.09233	        -5434.31	         5168.06	        -266.248
     614	 1.99221	 1.09914	        -5433.55	          5167.3	         -266.25
     615	 1.99033	 1.11046	         -5428.6	         5162.44	        -266.162
     616	 1.98745	 1.12451	        -5420.97	         5154.97	        -265.998
     617	 1.98456	 1.13823	        -5413.33	         5147.48	        -265.856
     618	 1.98254	 1.14885	        -5408.05	         5142.24	        -265.813
     619	  1.9818	 1.15511	        -5406.13	         5140.32	        -265.809
     620	 1.98245	  1.1566	         -5407.8	         5142.02	        -265.783
     621	 1.98458	 1.15306	        -5413.33	         5147.54	        -265.783
     622	 1.98805	 1.14488	        -5422.39	         5156.52	        -265.868
     623	 1.99223	 1.13395	        -5433.39	         5167.37	        -266.028
     624	 1.99612	 1.12332	        -5443.65	         5177.44	        -266.216
     625	 1.99856	 1.11642	        -5450.14	         5183.78	        -266.362
     626	 1.99875	 1.11572	        -5450.65	         5184.25	        -266.394
     627	 1.99652	 1.12166	        -5444.77	         5178.48	        -266.293
     628	 1.99253	 1.13233	        -5434.23	         5168.14	          -266.1
     629	 1.98799	 1.14416	        -5422.24	         5156.37	        -265.865
     630	 1.98441	  1.1528	         -5412.7	         5147.09	        -265.609
     631	 1.98337	 1.15375	        -5409.79	         5144.41	        -265.376
     632	 1.98615	 1.14342	        -5416.93	         5151.61	        -265.319
     633	 1.99284	 1.12166	        -5434.56	         5168.96	        -265.602
     634	 2.00168	 1.09388	        -5457.98	         5191.86	        -266.113
     635	  2.0097	 1.06911	        -5479.16	         5212.65	        -266.512
     636	 2.01444	 1.05475	        -5491.53	         5224.93	        -266.606
     637	 2.01505	 1.05332	        -5492.98	         5226.51	        -266.465
     638	  2.0121	 1.06311	        -5485.12	         5218.86	        -266.264
     639	  2.0067	 1.08072	        -5470.96	         5204.86	        -266.102
     640	 1.99995	 1.10276	        -5453.35	         5187.39	        -265.967
     641	 1.99292	   1.126	        -5434.97	         5169.15	        -265.818
     642	 1.98667	 1.14702	        -5418.63	         5152.95	        -265.682
     643	 1.98214	 1.16284	        -5406.85	         5141.21	        -265.641
     644	  1.9797	 1.17222	        -5400.61	         5134.89	        -265.722
     645	 1.97902	 1.17603	        -5398.99	         5133.12	         -265.87
     646	 1.97934	 1.17641	        -5399.94	         5133.95	        -265.999
     647	 1.97998	 1.17531	        -5401.64	         5135.61	        -266.029
     648	 1.98077	 1.17325	        -5403.62	         5137.65	        -265.962
     649	 1.98197	 1.16939	         -5406.7	         5140.77	        -265.928
     650	 1.98366	 1.16342	         -5411.2	         5145.15	        -266.045
     651	 1.98525	 1.15716	        -5415.45	         5149.27	        -266.188
     652	 1.98605	 1.15266	        -5417.52	         5151.36	        -266.159
     653	 1.98624	 1.14946	        -5417.81	         5151.85	        -265.958
     654	 1.98683	 1.14452	        -5419.14	         5153.38	        -265.759
     655	 1.98881	 1.13493	        -5424.25	         5158.51	        -265.737
     656	 1.99222	 1.12056	        -5433.26	         5167.35	        -265.909
     657	 1.99609	 1.10437	        -5443.48	         5177.38	        -266.102
     658	 1.99927	 1.08979	        -5451.78	         5185.61	        -266.168
     659	 2.00123	 1.07836	        -5456.78	         5190.68	          -266.1
     660	  2.0022	 1.06935	        -5459.19	         5193.22	        -265.971
     661	 2.00284	 1.06091	        -5460.73	         5194.87	        -265.866
     662	 2.00372	 1.05138	        -5462.94	         5197.13	         -265.81
     663	  2.0052	 1.03977	        -5466.74	         5200.98	        -265.767
     664	 2.00754	 1.02548	        -5472.78	         5207.05	        -265.729
     665	 2.01085	 1.00829	        -5481.41	         5215.64	        -265.768
     666	 2.01478	0.989366	        -5491.75	         5225.81	        -265.944
     667	 2.01825	0.971926	           -5501	         5234.82	        -266.179
     668	 2.02001	0.959911	        -5505.66	         5239.36	        -266.299
     669	  2.0194	0.955295	           -5504	         5237.78	        -266.223
     670	 2.01684	0.956879	        -5497.21	         5231.14	        -266.067
     671	 2.01325	 0.96195	        -5487.81	         5221.85	        -265.967
     672	 2.00939	0.968351	        -5477.76	         5211.84	        -265.923
     673	 2.00564	0.974889	        -5468.07	         5202.11	        -265.955
     674	 2.00194	0.981615	        -5458.54	         5192.53	        -266.004
     675	 1.99821	0.988777	        -5448.76	         5182.87	        -265.897
     676	 1.99503	0.994547	        -5440.31	         5174.63	         -265.68
     677	 1.99349	0.995627	        -5436.17	         5170.62	        -265.541
     678	 1.99421	 0.99009	        -5438.12	          5172.5	        -265.618
     679	 1.99671	0.979426	        -5444.83	         5178.97	        -265.858
     680	 1.99963	0.967712	         -5452.6	         5186.54	        -266.058
     681	 2.00179	0.958547	        -5458.23	         5192.15	        -266.087
     682	 2.00287	0.952926	        -5460.94	         5194.96	        -265.982
     683	  2.0033	0.949663	        -5461.93	         5196.05	        -265.886
     684	  2.0035	0.947468	        -5462.47	         5196.58	        -265.894
     685	 2.00352	 0.94631	        -5462.58	         5196.63	        -265.948
     686	 2.00317	0.946739	        -5461.71	         5195.71	        -265.998
     687	 2.00232	0.949064	        -5459.53	         5193.52	        -266.009
     688	 2.00132	0.952545	        -5456.75	         5190.92	        -265.827
     689	 2.00118	 0.95406	        -5456.33	         5190.57	        -265.762
     690	 2.00216	0.952738	        -5459.16	         5193.11	        -266.046
     691	 2.00299	0.952662	        -5461.46	         5195.26	        -266.202
     692	  2.0025	0.957031	        -5460.28	         5193.98	        -266.298
     693	 1.99997	0.967802	        -5453.79	         5187.44	        -266.358
     694	 1.99516	0.985795	        -5441.18	         5174.96	        -266.227
     695	 1.98884	 1.00867	        -5424.49	         5158.58	        -265.913
     696	 1.98275	 1.03121	        -5408.42	          5142.8	        -265.617
     697	 1.97852	 1.04849	        -5397.37	         5131.82	        -265.553
     698	 1.97658	 1.05912	        -5392.49	          5126.8	        -265.692
     699	 1.97631	 1.06499	        -5391.94	         5126.11	        -265.829
     700	 1.97692	 1.06843	        -5393.55	         5127.67	        -265.881
     701	 1.97793	 1.07071	        -5396.19	         5130.29	          -265.9
     702	  1.9791	  1.0726	        -5399.24	         5133.33	        -265.919
     703	 1.98023	 1.07471	        -5402.22	         5136.27	        -265.954
     704	 1.98107	 1.07781	        -5404.48	         5138.44	        -266.041
     705	 1.98115	  1.0832	        -5404.81	         5138.65	        -266.164
     706	 1.97994	 1.09245	        -5401.73	          5135.5	        -266.226
     707	 1.97727	 1.10595	        -5394.75	          5128.6	         -266.15
     708	 1.97374	 1.12189	        -5385.39	         5119.43	        -265.966
     709	 1.97045	 1.13683	         -5376.7	         5110.91	        -265.796
     710	 1.96841	 1.14767	        -5371.37	         5105.61	        -265.758
     711	  1.9679	 1.15347	        -5370.14	          5104.3	        -265.837
     712	 1.96855	 1.15531	        -5371.93	         5105.98	        -265.948
     713	 1.96967	 1.15508	        -5374.97	          5108.9	        -266.069
     714	 1.97058	  1.1548	         -5377.4	         5111.24	        -266.163
     715	 1.97079	 1.15587	        -5377.95	         5111.79	        -266.154
     716	 1.97043	 1.15799	         -5376.9	         5110.87	        -266.034
     717	 1.97019	 1.15916	        -5376.15	         5110.23	        -265.917
     718	  1.9707	 1.15744	        -5377.48	         5111.57	        -265.912
     719	 1.97205	 1.15269	        -5381.07	         5115.07	        -265.998
     720	 1.97376	 1.14638	        -5385.59	         5119.48	        -266.111
     721	 1.97513	 1.14054	        -5389.24	         5123.04	        -266.199
     722	 1.97567	 1.13674	        -5390.64	         5124.43	        -266.214
     723	 1.97536	 1.13513	        -5389.76	         5123.65	        -266.109
     724	  1.9749	 1.13382	        -5388.39	         5122.46	        -265.936
     725	 1.97531	 1.12985	        -5389.34	          5123.5	        -265.845
     726	  1.9772	 1.12147	        -5394.29	          5128.4	        -265.887
     727	 1.98047	 1.10908	        -5402.89	         5136.89	        -266.003
     728	 1.98454	 1.09448	        -5413.56	         5147.44	        -266.112
     729	 1.98877	 1.07964	        -5424.56	          5158.4	        -266.169
     730	 1.99258	 1.06618	        -5434.55	         5168.27	        -266.287
     731	  1.9951	 1.05665	        -5441.25	         5174.79	        -266.458
     732	 1.99531	 1.05413	        -5441.84	         5175.34	        -266.506
     733	 1.99282	 1.05968	        -5435.31	          5168.9	         -266.41
     734	 1.98813	 1.07178	        -5422.99	         5156.75	        -266.248
     735	 1.98226	 1.08733	        -5407.59	         5141.51	        -266.079
     736	 1.97638	 1.10277	         -5392.2	         5126.28	        -265.921
     737	 1.97169	 1.11455	        -5379.89	         5114.13	        -265.757
     738	 1.96934	 1.11928	        -5373.63	         5108.03	        -265.601
     739	 1.97024	 1.11423	         -5375.9	         5110.36	        -265.537
     740	 1.97465	 1.09868	        -5387.43	          5121.8	        -265.627
     741	 1.98184	 1.07489	         -5406.3	         5140.44	        -265.865
     742	 1.99018	 1.04779	        -5428.21	         5162.06	        -266.151
     743	 1.99776	 1.02325	        -5448.06	          5181.7	        -266.362
     744	 2.00304	 1.00592	        -5461.84	         5195.38	        -266.461
     745	 2.00518	0.998402	        -5467.39	         5200.92	        -266.467
     746	 2.00403	 1.00122	        -5464.32	         5197.95	         -266.37
     747	 2.00013	 1.01279	        -5454.03	         5187.84	         -266.19
     748	 1.99449	 1.02997	        -5439.27	         5173.21	         -266.06
     749	 1.98797	 1.04997	        -5422.33	         5156.33	        -266.005
     750	 1.98126	 1.07065	        -5404.78	         5138.93	        -265.852
     751	 1.97551	 1.08845	        -5389.59	         5124.03	        -265.553
     752	 1.97248	 1.09798	         -5381.5	         5116.17	        -265.333
     753	 1.97336	 1.09551	        -5383.88	         5118.47	        -265.417
     754	 1.97775	 1.08231	        -5395.55	         5129.83	        -265.725
     755	 1.98389	  1.0636	        -5411.78	         5145.75	        -266.027
     756	 1.98992	 1.04494	        -5427.56	         5161.38	        -266.183
     757	 1.99468	 1.02978	        -5439.89	         5173.71	        -266.174
     758	 1.99796	 1.01883	        -5448.26	         5182.21	        -266.051
     759	 2.00026	 1.01072	        -5454.06	         5188.17	        -265.891
     760	 2.00232	 1.00334	         -5459.3	         5193.52	        -265.783
     761	 2.00467	0.995216	        -5465.37	          5199.6	        -265.771
     762	 2.00737	0.986254	         -5472.4	         5206.61	        -265.787
     763	 2.01036	0.976794	         -5480.1	         5214.37	        -265.733
     764	 2.01384	0.966376	        -5489.03	         5223.38	        -265.645
     765	 2.01806	0.954293	        -5499.99	         5234.32	        -265.668
     766	 2.02269	0.941614	        -5512.16	         5246.32	        -265.839
     767	  2.0267	0.931585	        -5522.71	          5256.7	        -266.007
     768	 2.02901	0.927432	        -5528.76	         5262.71	        -266.055
     769	  2.0292	 0.93049	         -5529.2	         5263.19	        -266.007
     770	 2.02738	0.940367	        -5524.43	         5258.48	        -265.951
     771	 2.02384	0.956187	        -5515.24	         5249.29	         -265.95
     772	 2.01867	0.977532	        -5501.89	          5235.9	        -265.992
     773	 2.01187	 1.00429	        -5484.28	         5218.28	            -266
     774	 2.00368	 1.03559	        -5462.97	         5197.04	        -265.927
     775	 1.99474	 1.06922	         -5439.7	         5173.86	        -265.839
     776	  1.9858	 1.10265	        -5416.51	          5150.7	        -265.804
     777	 1.97746	 1.13392	        -5394.84	         5129.08	        -265.758
     778	 1.97038	 1.16088	        -5376.35	         5110.74	        -265.609
     779	 1.96567	 1.18011	        -5363.95	         5098.52	        -265.431
     780	 1.96447	  1.1881	        -5360.79	         5095.42	        -265.366
     781	 1.96728	 1.18341	        -5368.16	         5102.69	        -265.469
     782	 1.97347	 1.16785	        -5384.51	         5118.73	        -265.775
     783	 1.98122	 1.14684	           -5405	         5138.82	         -266.18
     784	 1.98823	 1.12736	        -5423.36	         5156.99	        -266.363
     785	 1.99328	 1.11321	        -5436.29	         5170.09	        -266.202
     786	 1.99684	 1.10305	        -5445.27	         5179.31	        -265.955
     787	  1.9999	 1.09398	        -5453.14	         5187.25	         -265.89
     788	 2.00274	 1.08539	        -5460.55	          5194.6	        -265.943
     789	 2.00504	  1.0784	        -5466.54	         5200.58	         -265.96
     790	  2.0066	 1.07369	        -5470.54	         5204.61	        -265.934
     791	 2.00743	 1.07125	        -5472.69	         5206.77	        -265.914
     792	  2.0076	 1.07104	        -5473.14	          5207.2	        -265.932
     793	 2.00698	 1.07347	        -5471.58	         5205.59	        -265.988
     794	 2.00527	 1.07945	        -5467.21	         5201.16	        -266.049
     795	 2.00219	  1.0898	        -5459.24	         5193.19	         -266.05
     796	 1.99782	 1.10422	        -5447.83	         5181.86	        -265.972
     797	 1.99267	 1.12102	        -5434.38	         5168.51	        -265.864
     798	 1.98749	 1.13784	        -5420.87	         5155.08	        -265.792
     799	 1.98286	 1.15276	        -5408.86	         5143.08	        -265.787
     800	 1.97901	 1.16494	        -5398.95	         5133.11	        -265.842
     801	 1.97581	 1.17465	        -5390.72	         5124.79	        -265.927
     802	 1.97289	 1.18276	        -5383.22	         5117.24	         -265.98
     803	 1.97007	 1.18973	        -5375.89	         5109.93	        -265.959
     804	 1.96751	 1.19491	        -5369.17	          5103.3	        -265.868
     805	  1.9658	 1.19655	        -5364.58	         5098.86	        -265.715
     806	 1.96584	 1.19197	        -5364.51	         5098.97	        -265.541
     807	 1.96857	 1.17847	        -5371.48	         5106.04	        -265.444
     808	 1.97443	 1.15482	        -5386.73	         5121.23	        -265.496
     809	 1.98301	 1.12243	        -5409.12	         5143.45	        -265.669
     810	 1.99317	 1.08486	        -5435.64	         5169.81	        -265.835
     811	 2.00374	  1.0459	        -5463.12	         5197.21	        -265.915
     812	 2.01385	 1.00831	        -5489.38	          5223.4	        -265.976
     813	 2.02276	0.974512	        -5512.56	         5246.49	        -266.068
     814	 2.02968	0.947051	        -5530.59	         5264.44	        -266.146
     815	 2.03401	0.927955	        -5541.82	         5275.65	        -266.168
     816	  2.0355	0.917999	        -5545.65	         5279.53	        -266.126
     817	 2.03444	0.916479	        -5542.77	         5276.77	        -266.007
     818	 2.03157	0.921179	        -5535.17	         5269.33	        -265.841
     819	 2.02791	0.929017	        -5525.58	         5259.85	        -265.732
     820	 2.02421	0.937657	           -5516	         5250.27	         -265.73
     821	 2.02074	0.946293	           -5507	         5241.25	        -265.748
     822	 2.01761	0.954489	        -5498.84	         5233.14	        -265.698
     823	 2.01522	0.961033	        -5492.57	         5226.94	        -265.627
     824	 2.01397	0.964651	        -5489.35	         5223.71	        -265.642
     825	 2.01383	0.965497	        -5489.08	         5223.35	         -265.73
     826	 2.01434	0.965021	         -5490.5	         5224.66	        -265.833
     827	 2.01483	0.965157	        -5491.93	         5225.95	        -265.978
     828	 2.01444	 0.96843	        -5491.12	         5224.94	        -266.188
     829	 2.01207	0.978006	        -5485.16	         5218.79	        -266.373
     830	 2.00692	0.996151	        -5471.82	         5205.45	        -266.368
     831	 1.99932	 1.02178	        -5451.86	         5185.75	         -266.11
     832	 1.99096	 1.04972	         -5429.8	         5164.07	        -265.724
     833	 1.98422	 1.07275	        -5412.03	         5146.61	        -265.425
     834	 1.98098	 1.08526	        -5403.58	         5138.19	        -265.384
     835	  1.9816	 1.08603	        -5405.42	         5139.81	        -265.607
     836	   1.985	 1.07835	        -5414.49	         5148.63	        -265.855
     837	 1.98976	 1.06649	         -5426.9	         5160.96	        -265.949
     838	   1.995	 1.05299	        -5440.52	         5174.53	        -265.984
     839	 2.00014	 1.03959	        -5453.94	         5187.86	         -266.08
     840	  2.0044	 1.02874	         -5465.1	         5198.92	         -266.18
     841	 2.00706	 1.02281	        -5472.01	          5205.8	        -266.206
     842	 2.00778	 1.02279	        -5473.84	         5207.66	        -266.175
     843	 2.00662	  1.0285	         -5470.8	         5204.66	        -266.137
     844	 2.00385	 1.03915	        -5463.57	         5197.48	        -266.088
     845	 1.99993	 1.05334	         -5453.3	         5187.33	        -265.969
     846	 1.99575	 1.06847	        -5442.26	         5176.48	        -265.779
     847	 1.99244	 1.08102	        -5433.59	         5167.91	        -265.679
     848	 1.99063	 1.08902	        -5428.98	         5163.21	        -265.774
     849	 1.98998	  1.0935	        -5427.42	         5161.53	        -265.897
     850	 1.98992	 1.09618	        -5427.27	         5161.37	          -265.9
     851	 1.99034	 1.09731	        -5428.33	         5162.48	        -265.851
     852	 1.99143	  1.0964	        -5431.15	         5165.29	        -265.859
     853	 1.99312	  1.0937	        -5435.61	         5169.68	        -265.932
     854	 1.99501	 1.09055	        -5440.63	         5174.57	        -266.059
     855	 1.99633	  1.0892	        -5444.24	            5178	        -266.242
     856	  1.9961	 1.09263	         -5443.8	          5177.4	        -266.401
     857	  1.9935	 1.10319	        -5437.13	         5170.66	        -266.465
     858	 1.98832	 1.12138	        -5423.67	         5157.23	        -266.432
     859	  1.9811	 1.14552	        -5404.77	         5138.53	        -266.239
     860	 1.97344	 1.17095	         -5384.5	         5118.66	        -265.839
     861	 1.96767	 1.19047	        -5369.38	         5103.72	         -265.66
     862	 1.96481	 1.20078	        -5362.26	         5096.28	        -265.976
     863	 1.96351	 1.20599	        -5359.18	         5092.94	        -266.242
     864	 1.96233	  1.2104	        -5356.08	         5089.87	        -266.216
     865	 1.96111	 1.21425	        -5352.79	         5086.71	        -266.081
     866	 1.96047	 1.21573	        -5351.02	         5085.04	        -265.981
     867	 1.96098	 1.21328	        -5352.31	         5086.38	        -265.934
     868	 1.96295	 1.20613	        -5357.43	         5091.48	        -265.944
     869	 1.96629	 1.19459	        -5366.17	         5100.13	        -266.041
     870	 1.97038	 1.18049	        -5376.95	         5110.72	        -266.225
     871	 1.97415	 1.16701	        -5386.87	         5120.49	        -266.378
     872	 1.97671	 1.15686	        -5393.49	         5127.13	        -266.351
     873	 1.97808	 1.15004	        -5396.82	         5130.68	        -266.143
     874	 1.97918	 1.14381	        -5399.45	         5133.55	        -265.904
     875	 1.98115	 1.13486	        -5404.42	         5138.64	        -265.786
     876	  1.9845	 1.12168	        -5413.14	         5147.32	         -265.82
     877	 1.98895	 1.10515	         -5424.8	         5158.86	        -265.942
     878	 1.99371	  1.0876	        -5437.29	         5171.21	        -266.077
     879	 1.99791	  1.0716	        -5448.25	         5182.09	        -266.165
     880	 2.00094	 1.05892	         -5456.1	         5189.94	         -266.16
     881	 2.00273	 1.04978	        -5460.64	         5194.58	         -266.06
     882	 2.00374	  1.0428	        -5463.13	         5197.21	         -265.92
     883	 2.00468	 1.03593	        -5465.44	         5199.63	        -265.806
     884	 2.00612	 1.02746	        -5469.11	         5203.37	        -265.742
     885	 2.00839	  1.0165	        -5474.98	         5209.26	        -265.721
     886	 2.01153	 1.00301	        -5483.13	         5217.39	        -265.749
     887	 2.01522	0.987905	        -5492.82	         5226.96	        -265.855
     888	 2.01875	0.973372	        -5502.15	         5236.11	        -266.041
     889	 2.02103	0.962675	        -5508.24	         5242.01	        -266.225
     890	 2.02109	0.958748	        -5508.45	         5242.17	        -266.277
     891	 2.01876	0.962176	        -5502.28	         5236.14	        -266.148
     892	 2.01487	0.970525	        -5491.97	         5226.04	        -265.927
     893	 2.01082	0.979673	        -5481.24	         5215.54	        -265.705
     894	 2.00805	0.985412	        -5473.92	         5208.38	        -265.537
     895	 2.00759	 0.98475	        -5472.71	         5207.17	        -265.541
     896	 2.00942	0.977687	        -5477.66	         5211.93	        -265.731
     897	 2.01247	0.967445	        -5485.88	         5219.82	        -266.057
     898	 2.01487	0.959451	        -5492.48	         5226.04	        -266.438
     899	 2.01475	0.959362	        -5492.29	         5225.73	        -266.556
     900	 2.01178	0.968373	        -5484.28	         5218.04	        -266.246
     901	 2.00758	 0.98148	        -5473.11	         5207.16	        -265.949
     902	 2.00386	0.993621	         -5463.4	          5197.5	        -265.897
     903	 2.00108	 1.00343	        -5456.24	          5190.3	        -265.948
     904	   1.999	 1.01151	         -5450.9	          5184.9	            -266
     905	 1.99735	 1.01857	        -5446.58	         5180.62	        -265.952
     906	 1.99632	 1.02394	         -5443.8	         5177.95	        -265.846
     907	  1.9964	 1.02607	        -5443.97	         5178.18	        -265.787
     908	 1.99792	 1.02401	        -5447.92	         5182.12	        -265.804
     909	 2.00082	 1.01798	        -5455.49	         5189.63	        -265.859
     910	 2.00472	 1.00904	        -5465.75	         5199.75	        -265.998
     911	 2.00873	0.999816	        -5476.38	         5210.12	         -266.26
     912	  2.0114	0.994611	        -5483.48	         5217.05	        -266.427
     913	 2.01179	0.996327	        -5484.41	         5218.08	        -266.336
     914	 2.01021	 1.00405	         -5480.1	         5213.97	        -266.129
     915	 2.00759	  1.0149	        -5473.21	         5207.19	        -266.018
     916	 2.00455	 1.02709	        -5465.34	          5199.3	        -266.038
     917	 2.00114	 1.04045	         -5456.5	         5190.47	        -266.035
     918	 1.99757	  1.0544	        -5447.11	         5181.21	        -265.906
     919	 1.99458	  1.0666	        -5439.24	         5173.45	         -265.79
     920	 1.99283	 1.07498	        -5434.78	         5168.93	        -265.848
     921	 1.99219	 1.07997	        -5433.26	         5167.25	        -266.008
     922	 1.99193	 1.08371	        -5432.72	         5166.59	        -266.127
     923	 1.99148	 1.08789	        -5431.59	         5165.42	         -266.17
     924	 1.99062	  1.0931	        -5429.35	         5163.19	        -266.164
     925	 1.98944	 1.09908	        -5426.28	         5160.14	        -266.135
     926	 1.98819	 1.10513	        -5422.98	         5156.88	        -266.096
     927	 1.98717	 1.11035	        -5420.25	         5154.24	        -266.015
     928	 1.98684	 1.11338	        -5419.32	         5153.38	        -265.934
     929	 1.98742	 1.11338	        -5420.93	          5154.9	         -266.03
     930	 1.98825	 1.11227	        -5423.27	         5157.05	        -266.225
     931	 1.98815	 1.11348	        -5423.09	         5156.78	        -266.307
     932	 1.98651	 1.11871	        -5418.75	         5152.54	        -266.213
     933	 1.98378	 1.12656	        -5411.43	         5145.47	        -265.962
     934	 1.98136	 1.13297	        -5404.84	         5139.19	        -265.656
     935	 1.98084	 1.13309	        -5403.36	         5137.85	        -265.516
     936	 1.98295	 1.12477	        -5408.95	         5143.32	        -265.628
     937	 1.98712	  1.1098	        -5419.91	         5154.12	        -265.794
     938	 1.99233	 1.09122	        -5433.49	         5167.62	         -265.87
     939	 1.99792	 1.07104	        -5447.99	          5182.1	        -265.887
     940	 2.00354	 1.05037	         -5462.6	         5196.69	        -265.905
     941	 2.00893	 1.03019	        -5476.61	         5210.66	        -265.946
     942	 2.01374	 1.01167	        -5489.12	         5223.12	        -265.992
     943	 2.01764	0.995923	        -5499.24	         5233.23	        -266.001
     944	 2.02056	0.983283	        -5506.72	         5240.79	        -265.928
     945	 2.02285	0.972748	        -5512.52	         5246.74	        -265.788
     946	  2.0252	0.962333	        -5518.51	         5252.81	        -265.694
     947	 2.02802	0.950749	        -5525.86	         5260.14	        -265.717
     948	 2.03119	0.938464	        -5534.15	         5268.35	        -265.795
     949	 2.03423	0.926913	        -5542.07	         5276.22	        -265.852
     950	 2.03673	0.917297	        -5548.57	         5282.71	        -265.866
     951	 2.03853	0.910159	        -5553.24	         5287.37	        -265.862
     952	 2.03957	  0.9057	        -5555.95	         5290.07	        -265.883
     953	 2.03972	0.904335	         -5556.4	         5290.46	        -265.941
     954	 2.03874	0.906811	        -5553.91	         5287.93	        -265.985
     955	 2.03656	0.913425	        -5548.21	         5282.27	        -265.939
     956	 2.03355	 0.92307	        -5540.29	         5274.46	        -265.831
     957	 2.03035	0.933772	        -5531.93	         5266.16	        -265.767
     958	 2.02742	0.944132	        -5524.31	         5258.58	        -265.728
     959	 2.02506	0.953268	        -5518.14	         5252.47	        -265.673
     960	 2.02356	0.960248	        -5514.21	         5248.58	         -265.63
     961	 2.02312	0.964436	        -5513.08	         5247.44	        -265.631
     962	 2.02372	0.965942	        -5514.68	            5249	        -265.683
     963	 2.02502	0.965807	        -5518.17	         5252.36	        -265.807
     964	 2.02629	0.966234	        -5521.64	         5255.64	        -265.994
     965	 2.02649	0.970315	        -5522.33	         5256.17	        -266.155
     966	 2.02478	0.980619	        -5517.93	         5251.73	        -266.197
     967	 2.02094	0.997707	         -5507.9	         5241.79	        -266.112
     968	 2.01549	 1.01999	        -5493.64	         5227.65	        -265.992
     969	 2.00917	 1.04506	        -5477.21	         5211.28	        -265.924
     970	 2.00256	 1.07108	        -5460.05	         5194.13	        -265.918
     971	 1.99591	 1.09705	        -5442.82	          5176.9	        -265.922
     972	 1.98947	 1.12206	        -5426.06	          5160.2	        -265.852
     973	 1.98383	 1.14415	        -5411.31	          5145.6	        -265.711
     974	 1.97988	 1.16048	        -5400.97	         5135.35	         -265.62
     975	 1.97824	  1.1691	        -5396.71	          5131.1	        -265.615
     976	 1.97904	  1.1696	        -5398.84	         5133.19	         -265.65
     977	 1.98207	 1.16261	        -5406.77	         5141.04	        -265.729
     978	 1.98674	  1.1498	        -5419.03	         5153.15	        -265.879
     979	  1.9921	 1.13407	        -5433.07	         5167.02	        -266.049
     980	 1.99707	 1.11863	        -5446.07	         5179.92	        -266.149
     981	 2.00096	 1.10568	        -5456.15	         5189.98	        -266.169
     982	 2.00354	 1.09595	        -5462.78	         5196.67	        -266.105
     983	 2.00515	 1.08866	        -5466.77	         5200.84	        -265.931
     984	 2.00665	 1.08138	        -5470.49	         5204.75	        -265.737
     985	 2.00897	 1.07147	        -5476.45	         5210.77	        -265.681
     986	 2.01232	 1.05845	        -5485.23	         5219.45	        -265.785
     987	  2.0161	 1.04426	        -5495.15	         5229.22	        -265.929
     988	 2.01941	 1.03165	        -5503.85	         5237.81	        -266.036
     989	 2.02153	 1.02279	        -5509.45	         5243.32	        -266.132
     990	 2.02188	 1.01942	        -5510.45	         5244.23	         -266.22
     991	 2.02009	 1.02268	        -5505.81	         5239.59	        -266.221
     992	 2.01636	 1.03197	        -5495.99	          5229.9	         -266.09
     993	 2.01159	 1.04449	        -5483.45	         5217.54	        -265.912
     994	 2.00696	 1.05661	        -5471.37	         5205.55	        -265.821
     995	 2.00325	  1.0659	        -5461.75	         5195.93	        -265.823
     996	 2.00081	 1.07132	        -5455.34	          5189.6	        -265.739
     997	 2.00032	 1.07086	        -5453.84	         5188.35	         -265.49
     998	 2.00295	 1.06098	        -5460.54	         5195.15	        -265.387
     999	  2.0089	 1.04099	        -5476.22	         5210.58	        -265.641
